valence_slider.response,valence_slider.rt,arousal_slider.response,arousal_slider.rt,trials.thisRepN,trials.thisTrialN,trials.thisN,trials.thisIndex,trials.ran,img_name,vm,am,manipulation,participant,date,expName,psychopyVersion,OS,frameRate
-2.013108614,21.0457,-3.988764045,106.1185,0,0,0,172,1,365_45a719cabbc9aa308c4fcb30d529489c6966ac4073874af84f665c61_circblurint.jpg,2.507936,-1.968252,circularblurringint,brfr09,2022-06-13_11h02.21.185,ratings,2022.1.1,Win32,60.0060006
0.992509363,7.3853,0.973782772,16.5932,0,1,1,48,1,112_b6a4ce721c2e42943d7d8b168751d74cd2f372b1cd4fed5a4404faec_orig.jpg,2.107036,0.505688,original,brfr09,2022-06-13_11h02.21.185,ratings,2022.1.1,Win32,60.0060006
-1.985018727,11.3108,-2.02247191,17.4659,0,2,2,181,1,369_98db62a1bdabfd1bc551180da6658005b461585cd21614633cf76470_bw.jpg,2.190476,-0.03174604,blackwhite,brfr09,2022-06-13_11h02.21.185,ratings,2022.1.1,Win32,60.0060006
-0.009363296,8.8476,-2.031835206,17.6221,0,3,3,79,1,242_85283f6935a89812ab229dcad9ba184529c9242ac3106d768ecf3ab3_bw.jpg,2.14918,-0.2949852,blackwhite,brfr09,2022-06-13_11h02.21.185,ratings,2022.1.1,Win32,60.0060006
-3.108614232,9.0771,2.02247191,14.0118,0,4,4,285,1,440_dc6413e2b65369ee2587f4d85621742fe4ca87392d0a8ad2ea7d94e3_blur.jpg,-3.016216,1.69404,blurring,brfr09,2022-06-13_11h02.21.185,ratings,2022.1.1,Win32,60.0060006
-2.968164794,6.4035,2.97752809,13.7312,0,5,5,475,1,748_e519892faa7c772a0afaf9eeff36cf0e411574027ab3d9aa4947a048_bw.jpg,-1.813112,3.307432,blackwhite,brfr09,2022-06-13_11h02.21.185,ratings,2022.1.1,Win32,60.0060006
-3.941947566,3.316,2.902621723,8.0768,0,6,6,353,1,498_305b74cdc4784d9d25e72724302e5402def70177ea31ae7e25fab66b_circblurext.jpg,3.04762,-0.444444,circularblurringext,brfr09,2022-06-13_11h02.21.185,ratings,2022.1.1,Win32,60.0060006
-3.979400749,3.6337,2.986891386,6.8435,0,7,7,319,1,460_e06b3af7ff2f2bfb5f9b6e3d5dc25b9aaa40b84823fac8fd934621bd_bw.jpg,-3.430992,-1.607468,blackwhite,brfr09,2022-06-13_11h02.21.185,ratings,2022.1.1,Win32,60.0060006
3.895131086,4.4163,3.033707865,9.5682,0,8,8,460,1,720_483c541c48959a597fcf44320941afaf8b7695105f90d65b5f6b30f2_circblurint.jpg,2.158732,-0.2539684,circularblurringint,brfr09,2022-06-13_11h02.21.185,ratings,2022.1.1,Win32,60.0060006
0.870786517,8.8458,2.003745318,14.7338,0,9,9,53,1,112_b6a4ce721c2e42943d7d8b168751d74cd2f372b1cd4fed5a4404faec_circblurext.jpg,2.107036,0.505688,circularblurringext,brfr09,2022-06-13_11h02.21.185,ratings,2022.1.1,Win32,60.0060006
-3.108614232,4.5474,2.02247191,7.1895,0,10,10,346,1,494_5c6c3b85a2734a43c24bfe337d42ffcc82b7347227804d01c784cef4_circblurint.jpg,0.03871468,0.0,circularblurringint,brfr09,2022-06-13_11h02.21.185,ratings,2022.1.1,Win32,60.0060006
-2.921348315,4.5161,2.097378277,7.3419,0,11,11,425,1,692_e3e3bf88684fbbcdb9849a4147f9e2fcd39b0f083554a829aca4e9fa_circblurext.jpg,-0.44522,3.135888,circularblurringext,brfr09,2022-06-13_11h02.21.185,ratings,2022.1.1,Win32,60.0060006
-2.013108614,5.0116,1.966292135,9.1637,0,12,12,162,1,361_b5541309527dc3c2422f45a95ebb0ed32005e6fe10d0489a1ff1fbdc_orig.jpg,-3.987612,-0.2516452,original,brfr09,2022-06-13_11h02.21.185,ratings,2022.1.1,Win32,60.0060006
2.013108614,5.272,2.968164794,8.4716,0,13,13,576,1,1061_665178b9cb0bc869cc2e2b68def4838db04e66f9531098fb75875a09_orig.jpg,0.3492064,-0.3174604,original,brfr09,2022-06-13_11h02.21.185,ratings,2022.1.1,Win32,60.0060006
0.018726592,4.2211,1.938202247,7.8668,0,14,14,299,1,449_9c1e990a3480e5b51430fe76b0188e69ba2468fd6a866b88b2d0dd75_circblurext.jpg,0.095238,0.03174604,circularblurringext,brfr09,2022-06-13_11h02.21.185,ratings,2022.1.1,Win32,60.0060006
2.958801498,2.8879,2.93071161,8.2657,0,15,15,30,1,60_ad52063167538de24f94d7dfd04808cb94cf8f426c40871d2f126505_orig.jpg,2.158732,0.0,original,brfr09,2022-06-13_11h02.21.185,ratings,2022.1.1,Win32,60.0060006
-0.046816479,7.8873,0.028089888,9.3895,0,16,16,471,1,741_2b218fb015e3da83db73cacdb52e61e0c2534c1fe255bb1c5c74d47f_blur.jpg,3.140096,0.448584,blurring,brfr09,2022-06-13_11h02.21.185,ratings,2022.1.1,Win32,60.0060006
-1.039325843,7.3672,0.018726592,15.2204,0,17,17,46,1,92_5d20d78a8e57e628c6930676473a4e0a485e715841efd6286c660020_circblurint.jpg,2.126984,0.0,circularblurringint,brfr09,2022-06-13_11h02.21.185,ratings,2022.1.1,Win32,60.0060006
0.936329588,3.7696,0.945692884,5.8596,0,18,18,147,1,354_e46c3ec6fb00773f64f2bcd212385f253c389808fe724b7cf8611051_blur.jpg,2.018292,0.0,blurring,brfr09,2022-06-13_11h02.21.185,ratings,2022.1.1,Win32,60.0060006
1.020599251,5.4157,-1.020599251,9.5838,0,19,19,403,1,686_6745b57686ad5d1bd6cf3e7ed5bc0243a154f8939e88e30321dfcfdb_bw.jpg,-1.523808,3.650792,blackwhite,brfr09,2022-06-13_11h02.21.185,ratings,2022.1.1,Win32,60.0060006
-0.992509363,10.2469,-1.11423221,19.6871,0,20,20,82,1,242_85283f6935a89812ab229dcad9ba184529c9242ac3106d768ecf3ab3_circblurint.jpg,2.14918,-0.2949852,circularblurringint,brfr09,2022-06-13_11h02.21.185,ratings,2022.1.1,Win32,60.0060006
-2.958801498,3.3434,2.986891386,5.9897,0,21,21,396,1,683_a004ad18331da968da5debdd15e1447dd7748750af0bc6c57b844200_orig.jpg,-2.91956,2.466524,original,brfr09,2022-06-13_11h02.21.185,ratings,2022.1.1,Win32,60.0060006
2.893258427,5.4433,3.071161049,7.5326,0,22,22,24,1,59_8568373b727f29d67ba6ce4c360dd918c8b08b13495fca56bdda5e82_orig.jpg,2.064896,0.505688,original,brfr09,2022-06-13_11h02.21.185,ratings,2022.1.1,Win32,60.0060006
-3.904494382,2.4264,2.902621723,5.6981,0,23,23,138,1,353_44e285740cb41818482ac93fc5fbd72c18029444a1d7506c9fc053e7_orig.jpg,-3.232676,-0.87108,original,brfr09,2022-06-13_11h02.21.185,ratings,2022.1.1,Win32,60.0060006
3.876404494,3.9602,3.117977528,7.6266,0,24,24,187,1,369_c99797771115d7627d4abe3415f814497288f91a7be1a04c17c776b9_bw.jpg,3.619824,-0.174216,blackwhite,brfr09,2022-06-13_11h02.21.185,ratings,2022.1.1,Win32,60.0060006
0.964419476,7.5605,-1.095505618,11.8105,0,25,25,8,1,28_6318543b74eeb646a1735477ebc023fdc9ac3849bc0db1957c272a26_edges.jpg,2.811244,-0.74584,edges,brfr09,2022-06-13_11h02.21.185,ratings,2022.1.1,Win32,60.0060006
-3.117977528,6.8353,1.928838951,10.7103,0,26,26,436,1,694_f80f33613b268beffd6c044537cf3b44a84683d6e889bc37b8e9c34b_circblurint.jpg,-0.3785616,3.34728,circularblurringint,brfr09,2022-06-13_11h02.21.185,ratings,2022.1.1,Win32,60.0060006
-2.031835206,6.9606,0.973782772,10.0706,0,27,27,185,1,369_98db62a1bdabfd1bc551180da6658005b461585cd21614633cf76470_circblurext.jpg,2.190476,-0.03174604,circularblurringext,brfr09,2022-06-13_11h02.21.185,ratings,2022.1.1,Win32,60.0060006
-2.097378277,6.3348,-2.116104869,10.2803,0,28,28,59,1,137_0e6a04243c0a42a5e2528a2d181255ca2a4b7bd6e7978c5c2059c69f_circblurext.jpg,-0.95238,2.095236,circularblurringext,brfr09,2022-06-13_11h02.21.185,ratings,2022.1.1,Win32,60.0060006
-0.037453184,9.8453,-0.046816479,10.8614,0,29,29,260,1,416_8a1f874e0057d67a4e6955865ba88b2d8ce2c8b4469589307687a723_edges.jpg,-1.753336,3.088264,edges,brfr09,2022-06-13_11h02.21.185,ratings,2022.1.1,Win32,60.0060006
3.913857678,2.4491,3.895131086,4.7609,0,30,30,120,1,347_27f0e47c2722605b950ccf9fa900f78271e4c3c874064ab5dacac160_orig.jpg,1.838948,0.3097172,original,brfr09,2022-06-13_11h02.21.185,ratings,2022.1.1,Win32,60.0060006
-3.043071161,3.4964,2.968164794,6.1144,0,31,31,85,1,243_beddb302dcb21071d88c8d2cab07002050d36b3001ef28f89389fa56_bw.jpg,-0.3450656,-0.2070392,blackwhite,brfr09,2022-06-13_11h02.21.185,ratings,2022.1.1,Win32,60.0060006
-2.041198502,8.1875,2.02247191,192.7919,0,32,32,479,1,748_e519892faa7c772a0afaf9eeff36cf0e411574027ab3d9aa4947a048_circblurext.jpg,-1.813112,3.307432,circularblurringext,brfr09,2022-06-13_11h02.21.185,ratings,2022.1.1,Win32,60.0060006
2.003745318,3.5503,-2.968164794,7.272,0,33,33,336,1,492_a1a4d288d3bc486c83c3b6a835c42891989f5ba781633932298a7676_orig.jpg,3.406892,-0.44522,original,brfr09,2022-06-13_11h02.21.185,ratings,2022.1.1,Win32,60.0060006
-0.065543071,3.6301,-0.056179775,4.6882,0,34,34,218,1,396_208259ea431d47bb7f3946213eb099834eb119756ce304ad473d4d9f_edges.jpg,2.857144,-0.3809524,edges,brfr09,2022-06-13_11h02.21.185,ratings,2022.1.1,Win32,60.0060006
3.93258427,2.9999,3.960674157,3.9709,0,35,35,448,1,709_69c01dcde028a2a1a913f1a2a5026ae1748484f75c89217a040c6791_circblurint.jpg,1.432444,-0.01935732,circularblurringint,brfr09,2022-06-13_11h02.21.185,ratings,2022.1.1,Win32,60.0060006
-1.928838951,5.651,-0.028089888,10.1727,0,36,36,284,1,440_dc6413e2b65369ee2587f4d85621742fe4ca87392d0a8ad2ea7d94e3_edges.jpg,-3.016216,1.69404,edges,brfr09,2022-06-13_11h02.21.185,ratings,2022.1.1,Win32,60.0060006
3.005617978,3.6768,2.97752809,4.9553,0,37,37,577,1,1061_665178b9cb0bc869cc2e2b68def4838db04e66f9531098fb75875a09_bw.jpg,0.3492064,-0.3174604,blackwhite,brfr09,2022-06-13_11h02.21.185,ratings,2022.1.1,Win32,60.0060006
1.928838951,3.7084,1.985018727,5.0283,0,38,38,470,1,741_2b218fb015e3da83db73cacdb52e61e0c2534c1fe255bb1c5c74d47f_edges.jpg,3.140096,0.448584,edges,brfr09,2022-06-13_11h02.21.185,ratings,2022.1.1,Win32,60.0060006
1.029962547,4.0939,1.048689139,5.4282,0,39,39,468,1,741_2b218fb015e3da83db73cacdb52e61e0c2534c1fe255bb1c5c74d47f_orig.jpg,3.140096,0.448584,original,brfr09,2022-06-13_11h02.21.185,ratings,2022.1.1,Win32,60.0060006
-3.88576779,5.1814,2.02247191,9.0554,0,40,40,142,1,353_44e285740cb41818482ac93fc5fbd72c18029444a1d7506c9fc053e7_circblurint.jpg,-3.232676,-0.87108,circularblurringint,brfr09,2022-06-13_11h02.21.185,ratings,2022.1.1,Win32,60.0060006
-2.059925094,34.4768,1.001872659,40.3473,0,41,41,580,1,1061_665178b9cb0bc869cc2e2b68def4838db04e66f9531098fb75875a09_circblurint.jpg,0.3492064,-0.3174604,circularblurringint,brfr09,2022-06-13_11h02.21.185,ratings,2022.1.1,Win32,60.0060006
-1.058052434,12.5776,-1.029962547,15.8871,0,42,42,92,1,258_d26019382777d2159a974a7654923e71598135ce2cd710cea1f92865_edges.jpg,3.497684,-0.61104,edges,brfr09,2022-06-13_11h02.21.185,ratings,2022.1.1,Win32,60.0060006
2.97752809,2.2875,2.883895131,6.1379,0,43,43,169,1,365_45a719cabbc9aa308c4fcb30d529489c6966ac4073874af84f665c61_bw.jpg,2.507936,-1.968252,blackwhite,brfr09,2022-06-13_11h02.21.185,ratings,2022.1.1,Win32,60.0060006
-1.011235955,3.8939,-0.992509363,6.3538,0,44,44,310,1,455_34a7d8167619d110206c369e3f7dce8a3f99db763a9d8e2b956501d3_circblurint.jpg,-2.526412,-0.3827896,circularblurringint,brfr09,2022-06-13_11h02.21.185,ratings,2022.1.1,Win32,60.0060006
2.837078652,5.4646,2.02247191,8.1122,0,45,45,190,1,369_c99797771115d7627d4abe3415f814497288f91a7be1a04c17c776b9_circblurint.jpg,3.619824,-0.174216,circularblurringint,brfr09,2022-06-13_11h02.21.185,ratings,2022.1.1,Win32,60.0060006
-3.876404494,3.1967,2.827715356,5.861,0,46,46,323,1,460_e06b3af7ff2f2bfb5f9b6e3d5dc25b9aaa40b84823fac8fd934621bd_circblurext.jpg,-3.430992,-1.607468,circularblurringext,brfr09,2022-06-13_11h02.21.185,ratings,2022.1.1,Win32,60.0060006
-0.992509363,10.8439,-0.936329588,12.9483,0,47,47,545,1,1005_b980c0747d20935bc63cc27a9e05ce2ff5bae98f859872ec48edd7f5_circblurext.jpg,3.428572,-0.476192,circularblurringext,brfr09,2022-06-13_11h02.21.185,ratings,2022.1.1,Win32,60.0060006
-1.001872659,6.4697,0.9082397,8.4394,0,48,48,87,1,243_beddb302dcb21071d88c8d2cab07002050d36b3001ef28f89389fa56_blur.jpg,-0.3450656,-0.2070392,blurring,brfr09,2022-06-13_11h02.21.185,ratings,2022.1.1,Win32,60.0060006
-1.104868914,3.4456,2.940074906,6.2432,0,49,49,335,1,482_a1cd28915c5044c018195ab0fff10dcc95e385246b045a7cd4463ff7_circblurext.jpg,-3.361852,-1.555612,circularblurringext,brfr09,2022-06-13_11h02.21.185,ratings,2022.1.1,Win32,60.0060006
1.985018727,134.7421,1.956928839,148.5986,0,50,50,466,1,736_bb85db1bcda8eb34299aa5791ac65a0a7c343266eb2d6e6e328ec0e1_circblurint.jpg,3.650792,-0.03174604,circularblurringint,brfr09,2022-06-13_11h02.21.185,ratings,2022.1.1,Win32,60.0060006
-1.058052434,9.2544,-1.966292135,16.5868,0,51,51,208,1,381_5935a9f9796adce2f1539af6c75bcdc0c80d847a2ce9b77cf59b7672_circblurint.jpg,-1.327432,-0.442476,circularblurringint,brfr09,2022-06-13_11h02.21.185,ratings,2022.1.1,Win32,60.0060006
0.009363296,10.6261,-0.028089888,13.8541,0,52,52,217,1,396_208259ea431d47bb7f3946213eb099834eb119756ce304ad473d4d9f_bw.jpg,2.857144,-0.3809524,blackwhite,brfr09,2022-06-13_11h02.21.185,ratings,2022.1.1,Win32,60.0060006
-1.029962547,6.0947,0.973782772,7.3607,0,53,53,343,1,494_5c6c3b85a2734a43c24bfe337d42ffcc82b7347227804d01c784cef4_bw.jpg,0.03871468,0.0,blackwhite,brfr09,2022-06-13_11h02.21.185,ratings,2022.1.1,Win32,60.0060006
-1.048689139,9.7626,-1.095505618,16.7467,0,54,54,364,1,508_a7a9519cdc7aad6844030f4e6cd96cffd1b9c49b71e20ea52789bda2_circblurint.jpg,-3.000388,-1.29694,circularblurringint,brfr09,2022-06-13_11h02.21.185,ratings,2022.1.1,Win32,60.0060006
-0.056179775,5.875,0.945692884,9.0973,0,55,55,588,1,1228_557412d34d6a70b7c5d222e030aa485b351a4574e8ba1a3112d1d13d_orig.jpg,2.137444,0.703464,original,brfr09,2022-06-13_11h02.21.185,ratings,2022.1.1,Win32,60.0060006
-1.039325843,13.8338,1.001872659,17.4208,0,56,56,63,1,156_08e8cf8f04630e9213e610580de73f51572d1d589878648700bae4dc_blur.jpg,2.222224,0.0,blurring,brfr09,2022-06-13_11h02.21.185,ratings,2022.1.1,Win32,60.0060006
-2.06928839,3.2258,0.983146067,8.3596,0,57,57,129,1,349_18d92ef5c21ca70a3dd237aad251594e1688bbe01d8cff37b89c46b8_blur.jpg,-2.74874,-1.258228,blurring,brfr09,2022-06-13_11h02.21.185,ratings,2022.1.1,Win32,60.0060006
0.898876404,6.6115,0.973782772,9.4207,0,58,58,3,1,13_771f4fcf0a212d25d6a78565e7f34cc5ddd823e7afbdc77ef063326e_blur.jpg,2.190476,0.0,blurring,brfr09,2022-06-13_11h02.21.185,ratings,2022.1.1,Win32,60.0060006
3.93258427,2.2902,3.820224719,3.7705,0,59,59,198,1,380_34772591c787182a37724027eac6948ebc9d4064f6a601d23b923b8e_orig.jpg,2.222224,-0.063492,original,brfr09,2022-06-13_11h02.21.185,ratings,2022.1.1,Win32,60.0060006
3.88576779,1.8876,3.904494382,2.9735,0,60,60,175,1,368_6507b94d7d0199f14efd3706db30c9c44b96085f84e9cc7792e3e0ae_bw.jpg,1.959544,0.400336,blackwhite,brfr09,2022-06-13_11h02.21.185,ratings,2022.1.1,Win32,60.0060006
-2.088014981,8.3872,3.052434457,11.0203,0,61,61,407,1,686_6745b57686ad5d1bd6cf3e7ed5bc0243a154f8939e88e30321dfcfdb_circblurext.jpg,-1.523808,3.650792,circularblurringext,brfr09,2022-06-13_11h02.21.185,ratings,2022.1.1,Win32,60.0060006
3.857677903,1.9882,3.923220974,3.3721,0,62,62,174,1,368_6507b94d7d0199f14efd3706db30c9c44b96085f84e9cc7792e3e0ae_orig.jpg,1.959544,0.400336,original,brfr09,2022-06-13_11h02.21.185,ratings,2022.1.1,Win32,60.0060006
-0.009363296,9.8996,-0.046816479,11.6375,0,63,63,428,1,694_7a14b8ab7c564dcb0f628c4de7f6cb54e4c5f6601f774bf167641c37_edges.jpg,1.819588,0.116144,edges,brfr09,2022-06-13_11h02.21.185,ratings,2022.1.1,Win32,60.0060006
1.947565543,2.771,1.91011236,7.1435,0,64,64,469,1,741_2b218fb015e3da83db73cacdb52e61e0c2534c1fe255bb1c5c74d47f_bw.jpg,3.140096,0.448584,blackwhite,brfr09,2022-06-13_11h02.21.185,ratings,2022.1.1,Win32,60.0060006
2.986891386,3.4438,3.88576779,4.6539,0,65,65,145,1,354_e46c3ec6fb00773f64f2bcd212385f253c389808fe724b7cf8611051_bw.jpg,2.018292,0.0,blackwhite,brfr09,2022-06-13_11h02.21.185,ratings,2022.1.1,Win32,60.0060006
-1.020599251,6.4684,0.964419476,9.1102,0,66,66,152,1,355_00a76f54934d36566dd0e7b091b8aa6a56d8e6b32d349aa578a10b45_edges.jpg,2.910052,0.3439152,edges,brfr09,2022-06-13_11h02.21.185,ratings,2022.1.1,Win32,60.0060006
-1.900749064,5.2284,0.945692884,10.8024,0,67,67,354,1,500_3b520c7f352afa1a9f8c07e56cc0588cdc04d25ff6e7b602b5e280cb_orig.jpg,-0.8328,3.11766,original,brfr09,2022-06-13_11h02.21.185,ratings,2022.1.1,Win32,60.0060006
1.966292135,8.1045,-2.031835206,10.4984,0,68,68,76,1,236_f645730e1eb06155418c9a571329cc7fa320654fcaaedf1048b5cc11_circblurint.jpg,2.253968,0.0,circularblurringint,brfr09,2022-06-13_11h02.21.185,ratings,2022.1.1,Win32,60.0060006
0.037453184,24.0487,-0.009363296,26.5041,0,69,69,452,1,716_2ab64478147184c4df720a52cf621875addc9007cb2967e4a9a88909_edges.jpg,2.428484,0.0,edges,brfr09,2022-06-13_11h02.21.185,ratings,2022.1.1,Win32,60.0060006
-0.973782772,14.1933,1.020599251,19.4147,0,70,70,483,1,759_95e1c46ed9a337414d5c8eada8fa8b9632e18751f5ce6ed587806e91_blur.jpg,2.126984,0.0,blurring,brfr09,2022-06-13_11h02.21.185,ratings,2022.1.1,Win32,60.0060006
0.112359551,6.1964,-0.037453184,8.1803,0,71,71,43,1,92_5d20d78a8e57e628c6930676473a4e0a485e715841efd6286c660020_bw.jpg,2.126984,0.0,blackwhite,brfr09,2022-06-13_11h02.21.185,ratings,2022.1.1,Win32,60.0060006
-2.958801498,3.1208,3.005617978,7.7796,0,72,72,414,1,692_7d7eaf20e6de8956f0fca7500ace97a8599aa8b605a7d690cdb28724_orig.jpg,-2.063492,-1.26984,original,brfr09,2022-06-13_11h02.21.185,ratings,2022.1.1,Win32,60.0060006
-1.132958801,4.5132,1.001872659,8.6604,0,73,73,317,1,459_46e25de472bb056cb470716d30937415f7344bfc4354d6eb710d8c9f_circblurext.jpg,0.03174604,0.0,circularblurringext,brfr09,2022-06-13_11h02.21.185,ratings,2022.1.1,Win32,60.0060006
-0.102996255,2.9212,0.037453184,7.4816,0,74,74,363,1,508_a7a9519cdc7aad6844030f4e6cd96cffd1b9c49b71e20ea52789bda2_blur.jpg,-3.000388,-1.29694,blurring,brfr09,2022-06-13_11h02.21.185,ratings,2022.1.1,Win32,60.0060006
1.020599251,28.3964,1.048689139,30.3375,0,75,75,402,1,686_6745b57686ad5d1bd6cf3e7ed5bc0243a154f8939e88e30321dfcfdb_orig.jpg,-1.523808,3.650792,original,brfr09,2022-06-13_11h02.21.185,ratings,2022.1.1,Win32,60.0060006
0.964419476,4.881,-1.994382022,9.0307,0,76,76,451,1,716_2ab64478147184c4df720a52cf621875addc9007cb2967e4a9a88909_bw.jpg,2.428484,0.0,blackwhite,brfr09,2022-06-13_11h02.21.185,ratings,2022.1.1,Win32,60.0060006
-3.88576779,5.7432,2.968164794,7.2873,0,77,77,245,1,411_adfd0d5782129756321ff671d0cfb712528504c66c863df11aabd1e7_circblurext.jpg,-3.392332,-1.369576,circularblurringext,brfr09,2022-06-13_11h02.21.185,ratings,2022.1.1,Win32,60.0060006
0.898876404,4.9432,1.011235955,10.343,0,78,78,581,1,1061_665178b9cb0bc869cc2e2b68def4838db04e66f9531098fb75875a09_circblurext.jpg,0.3492064,-0.3174604,circularblurringext,brfr09,2022-06-13_11h02.21.185,ratings,2022.1.1,Win32,60.0060006
-1.029962547,43.9104,1.011235955,48.3099,0,79,79,155,1,355_00a76f54934d36566dd0e7b091b8aa6a56d8e6b32d349aa578a10b45_circblurext.jpg,2.910052,0.3439152,circularblurringext,brfr09,2022-06-13_11h02.21.185,ratings,2022.1.1,Win32,60.0060006
-0.926966292,10.4365,0.9082397,11.5741,0,80,80,347,1,494_5c6c3b85a2734a43c24bfe337d42ffcc82b7347227804d01c784cef4_circblurext.jpg,0.03871468,0.0,circularblurringext,brfr09,2022-06-13_11h02.21.185,ratings,2022.1.1,Win32,60.0060006
2.986891386,3.2273,3.052434457,4.2777,0,81,81,541,1,1005_b980c0747d20935bc63cc27a9e05ce2ff5bae98f859872ec48edd7f5_bw.jpg,3.428572,-0.476192,blackwhite,brfr09,2022-06-13_11h02.21.185,ratings,2022.1.1,Win32,60.0060006
0.037453184,4.6722,-1.011235955,9.3186,0,82,82,552,1,1014_a5c212ca979d482cf94c2db7697aba75620391a64b030ab7ad2bbecf_orig.jpg,-3.174604,-1.374372,original,brfr09,2022-06-13_11h02.21.185,ratings,2022.1.1,Win32,60.0060006
-2.902621723,3.4441,0.95505618,5.9043,0,83,83,571,1,1039_d64da8480fc6e94dcdc513237d600570ae0b9fe48795ac6a8b2d29a7_bw.jpg,-2.507936,-1.142856,blackwhite,brfr09,2022-06-13_11h02.21.185,ratings,2022.1.1,Win32,60.0060006
2.059925094,10.906,1.975655431,13.554,0,84,84,109,1,293_3dfdfafc0c6a54b2da7453750ac281f7718c0b3337b0a74c4563d6bd_bw.jpg,-2.574524,2.632596,blackwhite,brfr09,2022-06-13_11h02.21.185,ratings,2022.1.1,Win32,60.0060006
-1.938202247,5.8433,0.898876404,12.7212,0,85,85,325,1,468_8b69b13120daebadd8a4a3166e1419f2404395cba231307a4efa9fde_bw.jpg,2.031744,0.2539684,blackwhite,brfr09,2022-06-13_11h02.21.185,ratings,2022.1.1,Win32,60.0060006
3.679775281,3.248,3.913857678,5.5872,0,86,86,37,1,82_43f4d5aec7c2e5bd495473f6708a0f2d47c9fe34e1fe9436646cb036_bw.jpg,2.022756,0.505688,blackwhite,brfr09,2022-06-13_11h02.21.185,ratings,2022.1.1,Win32,60.0060006
-1.985018727,5.8152,0.945692884,7.5932,0,87,87,113,1,293_3dfdfafc0c6a54b2da7453750ac281f7718c0b3337b0a74c4563d6bd_circblurext.jpg,-2.574524,2.632596,circularblurringext,brfr09,2022-06-13_11h02.21.185,ratings,2022.1.1,Win32,60.0060006
-1.076779026,8.42,-1.151685393,12.1258,0,88,88,307,1,455_34a7d8167619d110206c369e3f7dce8a3f99db763a9d8e2b956501d3_bw.jpg,-2.526412,-0.3827896,blackwhite,brfr09,2022-06-13_11h02.21.185,ratings,2022.1.1,Win32,60.0060006
-0.009363296,4.5046,-0.037453184,6.0804,0,89,89,206,1,381_5935a9f9796adce2f1539af6c75bcdc0c80d847a2ce9b77cf59b7672_edges.jpg,-1.327432,-0.442476,edges,brfr09,2022-06-13_11h02.21.185,ratings,2022.1.1,Win32,60.0060006
0.121722846,23.6592,-0.992509363,26.3951,0,90,90,306,1,455_34a7d8167619d110206c369e3f7dce8a3f99db763a9d8e2b956501d3_orig.jpg,-2.526412,-0.3827896,original,brfr09,2022-06-13_11h02.21.185,ratings,2022.1.1,Win32,60.0060006
-1.123595506,4.4368,0.926966292,9.2283,0,91,91,269,1,431_ab5a1dbbe9292ac7f74e276cdabcd372e2c1f852ff34bf7cc6646ef8_circblurext.jpg,3.102584,0.354334,circularblurringext,brfr09,2022-06-13_11h02.21.185,ratings,2022.1.1,Win32,60.0060006
-0.936329588,9.9602,0.973782772,11.098,0,92,92,433,1,694_f80f33613b268beffd6c044537cf3b44a84683d6e889bc37b8e9c34b_bw.jpg,-0.3785616,3.34728,blackwhite,brfr09,2022-06-13_11h02.21.185,ratings,2022.1.1,Win32,60.0060006
0.992509363,4.0274,1.076779026,5.5574,0,93,93,499,1,854_081a8409e4d6d10923b2dedcc16a3fca405fcd602e55a20d84cac69d_bw.jpg,3.088264,1.21538,blackwhite,brfr09,2022-06-13_11h02.21.185,ratings,2022.1.1,Win32,60.0060006
0.964419476,3.8047,-1.020599251,6.2947,0,94,94,338,1,492_a1a4d288d3bc486c83c3b6a835c42891989f5ba781633932298a7676_edges.jpg,3.406892,-0.44522,edges,brfr09,2022-06-13_11h02.21.185,ratings,2022.1.1,Win32,60.0060006
-1.039325843,6.7204,0.983146067,7.7781,0,95,95,62,1,156_08e8cf8f04630e9213e610580de73f51572d1d589878648700bae4dc_edges.jpg,2.222224,0.0,edges,brfr09,2022-06-13_11h02.21.185,ratings,2022.1.1,Win32,60.0060006
1.985018727,2.3773,3.895131086,4.324,0,96,96,80,1,242_85283f6935a89812ab229dcad9ba184529c9242ac3106d768ecf3ab3_edges.jpg,2.14918,-0.2949852,edges,brfr09,2022-06-13_11h02.21.185,ratings,2022.1.1,Win32,60.0060006
-1.086142322,3.5968,1.058052434,10.9972,0,97,97,77,1,236_f645730e1eb06155418c9a571329cc7fa320654fcaaedf1048b5cc11_circblurext.jpg,2.253968,0.0,circularblurringext,brfr09,2022-06-13_11h02.21.185,ratings,2022.1.1,Win32,60.0060006
-0.992509363,3.8272,0.898876404,4.6743,0,98,98,41,1,82_43f4d5aec7c2e5bd495473f6708a0f2d47c9fe34e1fe9436646cb036_circblurext.jpg,2.022756,0.505688,circularblurringext,brfr09,2022-06-13_11h02.21.185,ratings,2022.1.1,Win32,60.0060006
-0.018726592,3.422,2.865168539,5.7899,0,99,99,211,1,394_8e3a0cb945144d53bd1ace04b6256237ed9dcbbd9cb83f8a4886b0e6_bw.jpg,-2.593884,2.651956,blackwhite,brfr09,2022-06-13_11h02.21.185,ratings,2022.1.1,Win32,60.0060006
-1.928838951,5.2986,0.95505618,7.6984,0,100,100,320,1,460_e06b3af7ff2f2bfb5f9b6e3d5dc25b9aaa40b84823fac8fd934621bd_edges.jpg,-3.430992,-1.607468,edges,brfr09,2022-06-13_11h02.21.185,ratings,2022.1.1,Win32,60.0060006
2.013108614,2.8277,2.940074906,3.887,0,101,101,146,1,354_e46c3ec6fb00773f64f2bcd212385f253c389808fe724b7cf8611051_edges.jpg,2.018292,0.0,edges,brfr09,2022-06-13_11h02.21.185,ratings,2022.1.1,Win32,60.0060006
-0.95505618,3.2637,1.011235955,4.204,0,102,102,5,1,13_771f4fcf0a212d25d6a78565e7f34cc5ddd823e7afbdc77ef063326e_circblurext.jpg,2.190476,0.0,circularblurringext,brfr09,2022-06-13_11h02.21.185,ratings,2022.1.1,Win32,60.0060006
-1.975655431,4.0886,1.011235955,5.6717,0,103,103,281,1,440_9bf7e8609729bf888835168834da6c3ff30b75d0d4f36e2ee6918bcc_circblurext.jpg,-2.284164,2.710028,circularblurringext,brfr09,2022-06-13_11h02.21.185,ratings,2022.1.1,Win32,60.0060006
-1.179775281,3.5803,1.189138577,4.9104,0,104,104,431,1,694_7a14b8ab7c564dcb0f628c4de7f6cb54e4c5f6601f774bf167641c37_circblurext.jpg,1.819588,0.116144,circularblurringext,brfr09,2022-06-13_11h02.21.185,ratings,2022.1.1,Win32,60.0060006
-1.985018727,3.5435,1.06741573,4.6376,0,105,105,191,1,369_c99797771115d7627d4abe3415f814497288f91a7be1a04c17c776b9_circblurext.jpg,3.619824,-0.174216,circularblurringext,brfr09,2022-06-13_11h02.21.185,ratings,2022.1.1,Win32,60.0060006
-0.074906367,4.0329,0.056179775,6.177,0,106,106,164,1,361_b5541309527dc3c2422f45a95ebb0ed32005e6fe10d0489a1ff1fbdc_edges.jpg,-3.987612,-0.2516452,edges,brfr09,2022-06-13_11h02.21.185,ratings,2022.1.1,Win32,60.0060006
-1.029962547,4.7605,0.936329588,5.721,0,107,107,539,1,986_a77edb21e78bc3a6aa7406517824596b3496ad6c657b6befb84cf370_circblurext.jpg,-3.906316,-0.60496,circularblurringext,brfr09,2022-06-13_11h02.21.185,ratings,2022.1.1,Win32,60.0060006
0.842696629,5.1654,-1.011235955,7.3204,0,108,108,268,1,431_ab5a1dbbe9292ac7f74e276cdabcd372e2c1f852ff34bf7cc6646ef8_circblurint.jpg,3.102584,0.354334,circularblurringint,brfr09,2022-06-13_11h02.21.185,ratings,2022.1.1,Win32,60.0060006
-0.046816479,3.6543,-2.059925094,8.3492,0,109,109,42,1,92_5d20d78a8e57e628c6930676473a4e0a485e715841efd6286c660020_orig.jpg,2.126984,0.0,original,brfr09,2022-06-13_11h02.21.185,ratings,2022.1.1,Win32,60.0060006
3.848314607,4.599,3.867041199,5.529,0,110,110,444,1,709_69c01dcde028a2a1a913f1a2a5026ae1748484f75c89217a040c6791_orig.jpg,1.432444,-0.01935732,original,brfr09,2022-06-13_11h02.21.185,ratings,2022.1.1,Win32,60.0060006
3.951310861,2.7838,2.883895131,5.4736,0,111,111,40,1,82_43f4d5aec7c2e5bd495473f6708a0f2d47c9fe34e1fe9436646cb036_circblurint.jpg,2.022756,0.505688,circularblurringint,brfr09,2022-06-13_11h02.21.185,ratings,2022.1.1,Win32,60.0060006
-1.020599251,3.5969,0.842696629,4.8873,0,112,112,9,1,28_6318543b74eeb646a1735477ebc023fdc9ac3849bc0db1957c272a26_blur.jpg,2.811244,-0.74584,blurring,brfr09,2022-06-13_11h02.21.185,ratings,2022.1.1,Win32,60.0060006
0.95505618,6.2646,1.91011236,8.4539,0,113,113,487,1,818_877aae033c31e3bbca4486321a5307f87cf53c576c546462d3daf194_bw.jpg,-1.277584,0.619436,blackwhite,brfr09,2022-06-13_11h02.21.185,ratings,2022.1.1,Win32,60.0060006
0.028089888,2.8451,0.046816479,3.757,0,114,114,254,1,416_5eb54976bb41ce2a6d129ef985f792e716f010fb9b69b15f50f5d2db_edges.jpg,-2.58766,2.602972,edges,brfr09,2022-06-13_11h02.21.185,ratings,2022.1.1,Win32,60.0060006
-0.95505618,8.1269,0.889513109,9.5039,0,115,115,473,1,741_2b218fb015e3da83db73cacdb52e61e0c2534c1fe255bb1c5c74d47f_circblurext.jpg,3.140096,0.448584,circularblurringext,brfr09,2022-06-13_11h02.21.185,ratings,2022.1.1,Win32,60.0060006
0.056179775,12.775,0.945692884,9.9991,0,116,116,296,1,449_9c1e990a3480e5b51430fe76b0188e69ba2468fd6a866b88b2d0dd75_edges.jpg,0.095238,0.03174604,edges,brfr09,2022-06-13_11h02.21.185,ratings,2022.1.1,Win32,60.0060006
-0.065543071,6.6657,2.003745318,10.5616,0,117,117,86,1,243_beddb302dcb21071d88c8d2cab07002050d36b3001ef28f89389fa56_edges.jpg,-0.3450656,-0.2070392,edges,brfr09,2022-06-13_11h02.21.185,ratings,2022.1.1,Win32,60.0060006
3.913857678,2.1037,3.960674157,3.8203,0,118,118,36,1,82_43f4d5aec7c2e5bd495473f6708a0f2d47c9fe34e1fe9436646cb036_orig.jpg,2.022756,0.505688,original,brfr09,2022-06-13_11h02.21.185,ratings,2022.1.1,Win32,60.0060006
0.936329588,7.7205,0.823970037,9.0548,0,119,119,194,1,379_eeaa6d9bf5a4ef205dc48bc505cf3a7f24ea86e99af9b371e03602a7_edges.jpg,-0.3926308,2.88936,edges,brfr09,2022-06-13_11h02.21.185,ratings,2022.1.1,Win32,60.0060006
-0.945692884,2.5674,0.945692884,3.7933,0,120,120,533,1,915_dc9fd40a3b5d64a180833a7bac86e7556c24f681f473fe255e41f936_circblurext.jpg,-3.09294,-0.918696,circularblurringext,brfr09,2022-06-13_11h02.21.185,ratings,2022.1.1,Win32,60.0060006
-1.985018727,3.6686,1.029962547,5.5587,0,121,121,584,1,1225_59c67a821456f2cce3e5acf66d7f00076bd02caffc984c1eb0df794e_edges.jpg,-0.444444,3.809524,edges,brfr09,2022-06-13_11h02.21.185,ratings,2022.1.1,Win32,60.0060006
2.996254682,3.1066,2.940074906,5.1386,0,122,122,578,1,1061_665178b9cb0bc869cc2e2b68def4838db04e66f9531098fb75875a09_edges.jpg,0.3492064,-0.3174604,edges,brfr09,2022-06-13_11h02.21.185,ratings,2022.1.1,Win32,60.0060006
-1.142322097,3.4302,0.983146067,9.5763,0,123,123,501,1,854_081a8409e4d6d10923b2dedcc16a3fca405fcd602e55a20d84cac69d_blur.jpg,3.088264,1.21538,blurring,brfr09,2022-06-13_11h02.21.185,ratings,2022.1.1,Win32,60.0060006
-2.003745318,3.8652,1.142322097,8.2006,0,124,124,35,1,60_ad52063167538de24f94d7dfd04808cb94cf8f426c40871d2f126505_circblurext.jpg,2.158732,0.0,circularblurringext,brfr09,2022-06-13_11h02.21.185,ratings,2022.1.1,Win32,60.0060006
-1.058052434,5.2957,0.945692884,6.1457,0,125,125,437,1,694_f80f33613b268beffd6c044537cf3b44a84683d6e889bc37b8e9c34b_circblurext.jpg,-0.3785616,3.34728,circularblurringext,brfr09,2022-06-13_11h02.21.185,ratings,2022.1.1,Win32,60.0060006
-1.985018727,2.8138,1.058052434,4.4318,0,126,126,449,1,709_69c01dcde028a2a1a913f1a2a5026ae1748484f75c89217a040c6791_circblurext.jpg,1.432444,-0.01935732,circularblurringext,brfr09,2022-06-13_11h02.21.185,ratings,2022.1.1,Win32,60.0060006
0.964419476,3.2554,-2.921348315,7.025,0,127,127,394,1,663_aaf52107fe3a86392530d88b34e86f9d2b6820714cad98d1e3c2cb67_circblurint.jpg,2.58766,0.0918696,circularblurringint,brfr09,2022-06-13_11h02.21.185,ratings,2022.1.1,Win32,60.0060006
-3.071161049,2.9767,2.902621723,5.5375,0,128,128,263,1,416_8a1f874e0057d67a4e6955865ba88b2d8ce2c8b4469589307687a723_circblurext.jpg,-1.753336,3.088264,circularblurringext,brfr09,2022-06-13_11h02.21.185,ratings,2022.1.1,Win32,60.0060006
2.93071161,5.7618,-3.005617978,7.964,0,129,129,154,1,355_00a76f54934d36566dd0e7b091b8aa6a56d8e6b32d349aa578a10b45_circblurint.jpg,2.910052,0.3439152,circularblurringint,brfr09,2022-06-13_11h02.21.185,ratings,2022.1.1,Win32,60.0060006
-1.058052434,2.6949,1.039325843,4.0228,0,130,130,249,1,414_0187bdf7007109b487865b6a9d388997a6817acf052a6a7cdd5b39d9_blur.jpg,-2.786708,-1.133056,blurring,brfr09,2022-06-13_11h02.21.185,ratings,2022.1.1,Win32,60.0060006
-1.985018727,4.4845,1.001872659,10.0365,0,131,131,215,1,394_8e3a0cb945144d53bd1ace04b6256237ed9dcbbd9cb83f8a4886b0e6_circblurext.jpg,-2.593884,2.651956,circularblurringext,brfr09,2022-06-13_11h02.21.185,ratings,2022.1.1,Win32,60.0060006
2.031835206,3.2239,-2.106741573,4.2875,0,132,132,278,1,440_9bf7e8609729bf888835168834da6c3ff30b75d0d4f36e2ee6918bcc_edges.jpg,-2.284164,2.710028,edges,brfr09,2022-06-13_11h02.21.185,ratings,2022.1.1,Win32,60.0060006
2.078651685,3.6778,-1.975655431,5.8319,0,133,133,150,1,355_00a76f54934d36566dd0e7b091b8aa6a56d8e6b32d349aa578a10b45_orig.jpg,2.910052,0.3439152,original,brfr09,2022-06-13_11h02.21.185,ratings,2022.1.1,Win32,60.0060006
-0.093632959,4.1718,-0.177902622,6.2699,0,134,134,542,1,1005_b980c0747d20935bc63cc27a9e05ce2ff5bae98f859872ec48edd7f5_edges.jpg,3.428572,-0.476192,edges,brfr09,2022-06-13_11h02.21.185,ratings,2022.1.1,Win32,60.0060006
3.838951311,3.1503,3.913857678,4.048,0,135,135,445,1,709_69c01dcde028a2a1a913f1a2a5026ae1748484f75c89217a040c6791_bw.jpg,1.432444,-0.01935732,blackwhite,brfr09,2022-06-13_11h02.21.185,ratings,2022.1.1,Win32,60.0060006
-1.189138577,2.8368,1.001872659,4.4489,0,136,136,47,1,92_5d20d78a8e57e628c6930676473a4e0a485e715841efd6286c660020_circblurext.jpg,2.126984,0.0,circularblurringext,brfr09,2022-06-13_11h02.21.185,ratings,2022.1.1,Win32,60.0060006
-0.936329588,7.6594,-0.084269663,11.1869,0,137,137,488,1,818_877aae033c31e3bbca4486321a5307f87cf53c576c546462d3daf194_edges.jpg,-1.277584,0.619436,edges,brfr09,2022-06-13_11h02.21.185,ratings,2022.1.1,Win32,60.0060006
2.958801498,2.3985,2.93071161,4.3424,0,138,138,540,1,1005_b980c0747d20935bc63cc27a9e05ce2ff5bae98f859872ec48edd7f5_orig.jpg,3.428572,-0.476192,original,brfr09,2022-06-13_11h02.21.185,ratings,2022.1.1,Win32,60.0060006
-2.088014981,2.3408,1.086142322,4.2444,0,139,139,236,1,410_9633c4ff6e8888fcfca59a60ca86e9606d3e0736500a254101bdf295_edges.jpg,-0.3677892,2.981028,edges,brfr09,2022-06-13_11h02.21.185,ratings,2022.1.1,Win32,60.0060006
0.964419476,5.3307,-1.91011236,8.8106,0,140,140,248,1,414_0187bdf7007109b487865b6a9d388997a6817acf052a6a7cdd5b39d9_edges.jpg,-2.786708,-1.133056,edges,brfr09,2022-06-13_11h02.21.185,ratings,2022.1.1,Win32,60.0060006
1.947565543,4.0431,2.940074906,5.7094,0,141,141,12,1,39_2fafccaa4dc69045a05845f59c6b3cd2edcf7e0e0c108b24e553afe0_orig.jpg,2.022756,0.463548,original,brfr09,2022-06-13_11h02.21.185,ratings,2022.1.1,Win32,60.0060006
-3.071161049,2.3518,2.968164794,4.6535,0,142,142,497,1,824_b1d91cc824ce0d3d383d3147da88d3d6dbaf6be918bab79e3ec8f501_circblurext.jpg,-3.645176,-1.432784,circularblurringext,brfr09,2022-06-13_11h02.21.185,ratings,2022.1.1,Win32,60.0060006
2.106741573,3.152,-2.986891386,7.4419,0,143,143,118,1,332_4d584229bdae2e1782f77f0e953e528f13c3dfa79b4b94736c0310fa_circblurint.jpg,3.157348,0.483092,circularblurringint,brfr09,2022-06-13_11h02.21.185,ratings,2022.1.1,Win32,60.0060006
-0.028089888,6.8201,-1.947565543,9.5378,0,144,144,559,1,1022_cf035e583d41a856836f8b0ae314ecbe79dffd9e40ef6a08cc26028f_bw.jpg,-0.2516452,3.05846,blackwhite,brfr09,2022-06-13_11h02.21.185,ratings,2022.1.1,Win32,60.0060006
-1.975655431,3.5554,1.001872659,8.1714,0,145,145,381,1,640_0ddb4981a5f5842ed5b4f7ef941be53779189df5e718b1fc5475ad80_blur.jpg,2.571428,-1.873016,blurring,brfr09,2022-06-13_11h02.21.185,ratings,2022.1.1,Win32,60.0060006
3.801498127,5.2424,3.867041199,6.1871,0,146,146,67,1,172_c641c6c56ca6b594b773084e1363c852abdb65f988d7ff802ee503f2_bw.jpg,0.379572,0.01725328,blackwhite,brfr09,2022-06-13_11h02.21.185,ratings,2022.1.1,Win32,60.0060006
-2.088014981,8.4777,2.003745318,14.566,0,147,147,372,1,620_9674719009d75dcfeaed7f15932c43e1fd1af5e25d47b8aadd61efe2_orig.jpg,-0.561364,1.142084,original,brfr09,2022-06-13_11h02.21.185,ratings,2022.1.1,Win32,60.0060006
-0.973782772,5.3805,0.945692884,6.6625,0,148,148,21,1,48_2cc936b2483ab2944c9158e163342b874ef6c1492fd8fca08c0e096e_blur.jpg,-1.264224,-0.779604,blurring,brfr09,2022-06-13_11h02.21.185,ratings,2022.1.1,Win32,60.0060006
3.88576779,4.0482,3.876404494,6.67,0,149,149,289,1,442_7449d79dae5d652af9b2429872cabdef938646ba024db2f431b3b28d_bw.jpg,1.619048,0.126984,blackwhite,brfr09,2022-06-13_11h02.21.185,ratings,2022.1.1,Win32,60.0060006
-1.928838951,4.0599,0.964419476,5.3038,0,150,150,509,1,855_66d893451dfd1e7615132071c6c8a82b02dc2b37781cd89400883b26_circblurext.jpg,2.69484,0.2143624,circularblurringext,brfr09,2022-06-13_11h02.21.185,ratings,2022.1.1,Win32,60.0060006
-1.844569288,2.2373,0.95505618,3.055,0,151,151,579,1,1061_665178b9cb0bc869cc2e2b68def4838db04e66f9531098fb75875a09_blur.jpg,0.3492064,-0.3174604,blurring,brfr09,2022-06-13_11h02.21.185,ratings,2022.1.1,Win32,60.0060006
1.975655431,2.1797,-3.117977528,4.9637,0,152,152,548,1,1010_06d15f44b979c086561137000ec070ba4cd479856f92840a7850b2bf_edges.jpg,0.189786,-0.189786,edges,brfr09,2022-06-13_11h02.21.185,ratings,2022.1.1,Win32,60.0060006
3.941947566,4.3545,-3.970037453,5.7641,0,153,153,264,1,431_ab5a1dbbe9292ac7f74e276cdabcd372e2c1f852ff34bf7cc6646ef8_orig.jpg,3.102584,0.354334,original,brfr09,2022-06-13_11h02.21.185,ratings,2022.1.1,Win32,60.0060006
3.88576779,3.9036,-3.960674157,5.1872,0,154,154,19,1,48_2cc936b2483ab2944c9158e163342b874ef6c1492fd8fca08c0e096e_bw.jpg,-1.264224,-0.779604,blackwhite,brfr09,2022-06-13_11h02.21.185,ratings,2022.1.1,Win32,60.0060006
-2.078651685,5.1928,0.861423221,6.5992,0,155,155,141,1,353_44e285740cb41818482ac93fc5fbd72c18029444a1d7506c9fc053e7_blur.jpg,-3.232676,-0.87108,blurring,brfr09,2022-06-13_11h02.21.185,ratings,2022.1.1,Win32,60.0060006
-2.013108614,3.3602,1.142322097,4.1217,0,156,156,95,1,258_d26019382777d2159a974a7654923e71598135ce2cd710cea1f92865_circblurext.jpg,3.497684,-0.61104,circularblurringext,brfr09,2022-06-13_11h02.21.185,ratings,2022.1.1,Win32,60.0060006
-3.960674157,3.8702,3.970037453,5.2399,0,157,157,418,1,692_7d7eaf20e6de8956f0fca7500ace97a8599aa8b605a7d690cdb28724_circblurint.jpg,-2.063492,-1.26984,circularblurringint,brfr09,2022-06-13_11h02.21.185,ratings,2022.1.1,Win32,60.0060006
-0.084269663,8.2246,1.086142322,11.9366,0,158,158,416,1,692_7d7eaf20e6de8956f0fca7500ace97a8599aa8b605a7d690cdb28724_edges.jpg,-2.063492,-1.26984,edges,brfr09,2022-06-13_11h02.21.185,ratings,2022.1.1,Win32,60.0060006
-1.900749064,3.0378,0.917602996,5.5677,0,159,159,567,1,1037_e2eb929a6de79a63ce6cfe5321fcb74a203b134e4094932d90b01d99_blur.jpg,2.651956,0.0,blurring,brfr09,2022-06-13_11h02.21.185,ratings,2022.1.1,Win32,60.0060006
-2.134831461,4.7763,2.059925094,6.2824,0,160,160,334,1,482_a1cd28915c5044c018195ab0fff10dcc95e385246b045a7cd4463ff7_circblurint.jpg,-3.361852,-1.555612,circularblurringint,brfr09,2022-06-13_11h02.21.185,ratings,2022.1.1,Win32,60.0060006
-0.009363296,4.0225,1.011235955,6.0627,0,161,161,435,1,694_f80f33613b268beffd6c044537cf3b44a84683d6e889bc37b8e9c34b_blur.jpg,-0.3785616,3.34728,blurring,brfr09,2022-06-13_11h02.21.185,ratings,2022.1.1,Win32,60.0060006
3.951310861,4.378,-3.960674157,5.6537,0,162,162,427,1,694_7a14b8ab7c564dcb0f628c4de7f6cb54e4c5f6601f774bf167641c37_bw.jpg,1.819588,0.116144,blackwhite,brfr09,2022-06-13_11h02.21.185,ratings,2022.1.1,Win32,60.0060006
3.895131086,7.2668,-3.080524345,9.1242,0,163,163,564,1,1037_e2eb929a6de79a63ce6cfe5321fcb74a203b134e4094932d90b01d99_orig.jpg,2.651956,0.0,original,brfr09,2022-06-13_11h02.21.185,ratings,2022.1.1,Win32,60.0060006
2.893258427,2.6607,2.968164794,5.1814,0,164,164,110,1,293_3dfdfafc0c6a54b2da7453750ac281f7718c0b3337b0a74c4563d6bd_edges.jpg,-2.574524,2.632596,edges,brfr09,2022-06-13_11h02.21.185,ratings,2022.1.1,Win32,60.0060006
-0.992509363,7.2845,1.095505618,8.5823,0,165,165,247,1,414_0187bdf7007109b487865b6a9d388997a6817acf052a6a7cdd5b39d9_bw.jpg,-2.786708,-1.133056,blackwhite,brfr09,2022-06-13_11h02.21.185,ratings,2022.1.1,Win32,60.0060006
2.031835206,6.7018,-1.001872659,14.543,0,166,166,379,1,640_0ddb4981a5f5842ed5b4f7ef941be53779189df5e718b1fc5475ad80_bw.jpg,2.571428,-1.873016,blackwhite,brfr09,2022-06-13_11h02.21.185,ratings,2022.1.1,Win32,60.0060006
-1.882022472,1.9884,0.898876404,6.1815,0,167,167,411,1,687_e3b018945792a574962235c88c553b7c318c75eec2596478e8a7b877_blur.jpg,3.63918,-0.42586,blurring,brfr09,2022-06-13_11h02.21.185,ratings,2022.1.1,Win32,60.0060006
-1.891385768,6.2977,1.029962547,7.2895,0,168,168,195,1,379_eeaa6d9bf5a4ef205dc48bc505cf3a7f24ea86e99af9b371e03602a7_blur.jpg,-0.3926308,2.88936,blurring,brfr09,2022-06-13_11h02.21.185,ratings,2022.1.1,Win32,60.0060006
2.846441948,3.6944,1.947565543,5.5384,0,169,169,52,1,112_b6a4ce721c2e42943d7d8b168751d74cd2f372b1cd4fed5a4404faec_circblurint.jpg,2.107036,0.505688,circularblurringint,brfr09,2022-06-13_11h02.21.185,ratings,2022.1.1,Win32,60.0060006
-2.088014981,2.6095,0.917602996,3.4869,0,170,170,231,1,407_578d31d32e806706dde2563213f130b90e621abfed0e47ecabd85d27_blur.jpg,3.5873,-0.444444,blurring,brfr09,2022-06-13_11h02.21.185,ratings,2022.1.1,Win32,60.0060006
-1.928838951,1.8935,1.048689139,3.0535,0,171,171,39,1,82_43f4d5aec7c2e5bd495473f6708a0f2d47c9fe34e1fe9436646cb036_blur.jpg,2.022756,0.505688,blurring,brfr09,2022-06-13_11h02.21.185,ratings,2022.1.1,Win32,60.0060006
-2.855805243,10.9601,1.882022472,13.8976,0,172,172,324,1,468_8b69b13120daebadd8a4a3166e1419f2404395cba231307a4efa9fde_orig.jpg,2.031744,0.2539684,original,brfr09,2022-06-13_11h02.21.185,ratings,2022.1.1,Win32,60.0060006
-0.140449438,4.3978,-0.121722846,5.31,0,173,173,302,1,453_54f106fd1d4b65fa4aa347407127fc30d49f791e81aee3a0bbe44489_edges.jpg,2.222224,0.0,edges,brfr09,2022-06-13_11h02.21.185,ratings,2022.1.1,Win32,60.0060006
-0.168539326,5.2702,-0.028089888,6.2943,0,174,174,482,1,759_95e1c46ed9a337414d5c8eada8fa8b9632e18751f5ce6ed587806e91_edges.jpg,2.126984,0.0,edges,brfr09,2022-06-13_11h02.21.185,ratings,2022.1.1,Win32,60.0060006
-1.132958801,4.6918,-0.037453184,8.4915,0,175,175,234,1,410_9633c4ff6e8888fcfca59a60ca86e9606d3e0736500a254101bdf295_orig.jpg,-0.3677892,2.981028,original,brfr09,2022-06-13_11h02.21.185,ratings,2022.1.1,Win32,60.0060006
0.983146067,4.299,-1.058052434,12.4269,0,176,176,277,1,440_9bf7e8609729bf888835168834da6c3ff30b75d0d4f36e2ee6918bcc_bw.jpg,-2.284164,2.710028,blackwhite,brfr09,2022-06-13_11h02.21.185,ratings,2022.1.1,Win32,60.0060006
-3.043071161,2.3107,1.975655431,5.2387,0,177,177,89,1,243_beddb302dcb21071d88c8d2cab07002050d36b3001ef28f89389fa56_circblurext.jpg,-0.3450656,-0.2070392,circularblurringext,brfr09,2022-06-13_11h02.21.185,ratings,2022.1.1,Win32,60.0060006
-1.020599251,6.8761,0.945692884,11.6479,0,178,178,328,1,468_8b69b13120daebadd8a4a3166e1419f2404395cba231307a4efa9fde_circblurint.jpg,2.031744,0.2539684,circularblurringint,brfr09,2022-06-13_11h02.21.185,ratings,2022.1.1,Win32,60.0060006
3.857677903,2.3888,3.904494382,3.5496,0,179,179,458,1,720_483c541c48959a597fcf44320941afaf8b7695105f90d65b5f6b30f2_edges.jpg,2.158732,-0.2539684,edges,brfr09,2022-06-13_11h02.21.185,ratings,2022.1.1,Win32,60.0060006
-1.975655431,12.7433,0.814606742,15.6712,0,180,180,406,1,686_6745b57686ad5d1bd6cf3e7ed5bc0243a154f8939e88e30321dfcfdb_circblurint.jpg,-1.523808,3.650792,circularblurringint,brfr09,2022-06-13_11h02.21.185,ratings,2022.1.1,Win32,60.0060006
-1.048689139,6.4877,0.973782772,14.3034,0,181,181,598,1,1239_cee00457f4cfb76a407b12fd5ad714d440a4614c1e5467ee16caf618_circblurint.jpg,-0.03174604,0.190476,circularblurringint,brfr09,2022-06-13_11h02.21.185,ratings,2022.1.1,Win32,60.0060006
3.005617978,2.6762,-2.078651685,7.3559,0,182,182,409,1,687_e3b018945792a574962235c88c553b7c318c75eec2596478e8a7b877_bw.jpg,3.63918,-0.42586,blackwhite,brfr09,2022-06-13_11h02.21.185,ratings,2022.1.1,Win32,60.0060006
-0.028089888,3.2946,-1.966292135,6.0788,0,183,183,282,1,440_dc6413e2b65369ee2587f4d85621742fe4ca87392d0a8ad2ea7d94e3_orig.jpg,-3.016216,1.69404,original,brfr09,2022-06-13_11h02.21.185,ratings,2022.1.1,Win32,60.0060006
3.970037453,2.8048,3.810861423,3.6771,0,184,184,115,1,332_4d584229bdae2e1782f77f0e953e528f13c3dfa79b4b94736c0310fa_bw.jpg,3.157348,0.483092,blackwhite,brfr09,2022-06-13_11h02.21.185,ratings,2022.1.1,Win32,60.0060006
-1.947565543,1.9315,1.001872659,3.7712,0,185,185,413,1,687_e3b018945792a574962235c88c553b7c318c75eec2596478e8a7b877_circblurext.jpg,3.63918,-0.42586,circularblurringext,brfr09,2022-06-13_11h02.21.185,ratings,2022.1.1,Win32,60.0060006
-1.938202247,3.3463,0.992509363,4.3243,0,186,186,107,1,284_cdcbd54fc995081ac95c8b2c37a19cebb341f61a8eb268cee1623492_circblurext.jpg,-1.015872,2.095236,circularblurringext,brfr09,2022-06-13_11h02.21.185,ratings,2022.1.1,Win32,60.0060006
2.949438202,17.6936,-2.050561798,19.8595,0,187,187,0,1,13_771f4fcf0a212d25d6a78565e7f34cc5ddd823e7afbdc77ef063326e_orig.jpg,2.190476,0.0,original,brfr09,2022-06-13_11h02.21.185,ratings,2022.1.1,Win32,60.0060006
1.11423221,6.421,0.917602996,9.6871,0,188,188,290,1,442_7449d79dae5d652af9b2429872cabdef938646ba024db2f431b3b28d_edges.jpg,1.619048,0.126984,edges,brfr09,2022-06-13_11h02.21.185,ratings,2022.1.1,Win32,60.0060006
0.898876404,7.2882,0.870786517,10.536,0,189,189,544,1,1005_b980c0747d20935bc63cc27a9e05ce2ff5bae98f859872ec48edd7f5_circblurint.jpg,3.428572,-0.476192,circularblurringint,brfr09,2022-06-13_11h02.21.185,ratings,2022.1.1,Win32,60.0060006
-2.059925094,2.1874,0.917602996,5.4792,0,190,190,441,1,700_59cb565f134f1afd066d7b6d936c6511b7cb76de0e9cbb5ce15124ad_blur.jpg,0.0,0.0,blurring,brfr09,2022-06-13_11h02.21.185,ratings,2022.1.1,Win32,60.0060006
-2.93071161,7.4664,1.882022472,8.8436,0,191,191,65,1,156_08e8cf8f04630e9213e610580de73f51572d1d589878648700bae4dc_circblurext.jpg,2.222224,0.0,circularblurringext,brfr09,2022-06-13_11h02.21.185,ratings,2022.1.1,Win32,60.0060006
-2.125468165,3.7271,0.936329588,4.6624,0,192,192,131,1,349_18d92ef5c21ca70a3dd237aad251594e1688bbe01d8cff37b89c46b8_circblurext.jpg,-2.74874,-1.258228,circularblurringext,brfr09,2022-06-13_11h02.21.185,ratings,2022.1.1,Win32,60.0060006
3.904494382,2.6322,-3.080524345,5.2859,0,193,193,390,1,663_aaf52107fe3a86392530d88b34e86f9d2b6820714cad98d1e3c2cb67_orig.jpg,2.58766,0.0918696,original,brfr09,2022-06-13_11h02.21.185,ratings,2022.1.1,Win32,60.0060006
0.889513109,3.662,0.95505618,7.7761,0,194,194,293,1,442_7449d79dae5d652af9b2429872cabdef938646ba024db2f431b3b28d_circblurext.jpg,1.619048,0.126984,circularblurringext,brfr09,2022-06-13_11h02.21.185,ratings,2022.1.1,Win32,60.0060006
0.037453184,5.3476,0.037453184,6.3037,0,195,195,188,1,369_c99797771115d7627d4abe3415f814497288f91a7be1a04c17c776b9_edges.jpg,3.619824,-0.174216,edges,brfr09,2022-06-13_11h02.21.185,ratings,2022.1.1,Win32,60.0060006
-1.956928839,4.693,1.058052434,5.7106,0,196,196,453,1,716_2ab64478147184c4df720a52cf621875addc9007cb2967e4a9a88909_blur.jpg,2.428484,0.0,blurring,brfr09,2022-06-13_11h02.21.185,ratings,2022.1.1,Win32,60.0060006
-1.039325843,4.4766,1.029962547,5.4627,0,197,197,474,1,748_e519892faa7c772a0afaf9eeff36cf0e411574027ab3d9aa4947a048_orig.jpg,-1.813112,3.307432,original,brfr09,2022-06-13_11h02.21.185,ratings,2022.1.1,Win32,60.0060006
-2.106741573,2.8204,1.91011236,5.2873,0,198,198,574,1,1039_d64da8480fc6e94dcdc513237d600570ae0b9fe48795ac6a8b2d29a7_circblurint.jpg,-2.507936,-1.142856,circularblurringint,brfr09,2022-06-13_11h02.21.185,ratings,2022.1.1,Win32,60.0060006
-2.968164794,2.8938,1.947565543,4.4932,0,199,199,384,1,646_577760d718dab44c6f04d77408c5644a120065ce07a9503957d0850a_orig.jpg,-2.690668,2.61324,original,brfr09,2022-06-13_11h02.21.185,ratings,2022.1.1,Win32,60.0060006
-3.033707865,2.4917,1.975655431,3.6756,0,200,200,303,1,453_54f106fd1d4b65fa4aa347407127fc30d49f791e81aee3a0bbe44489_blur.jpg,2.222224,0.0,blurring,brfr09,2022-06-13_11h02.21.185,ratings,2022.1.1,Win32,60.0060006
0.992509363,3.7606,-2.059925094,11.7605,0,201,201,538,1,986_a77edb21e78bc3a6aa7406517824596b3496ad6c657b6befb84cf370_circblurint.jpg,-3.906316,-0.60496,circularblurringint,brfr09,2022-06-13_11h02.21.185,ratings,2022.1.1,Win32,60.0060006
-2.031835206,2.6142,0.936329588,3.5377,0,202,202,477,1,748_e519892faa7c772a0afaf9eeff36cf0e411574027ab3d9aa4947a048_blur.jpg,-1.813112,3.307432,blurring,brfr09,2022-06-13_11h02.21.185,ratings,2022.1.1,Win32,60.0060006
1.985018727,3.1617,-2.93071161,6.428,0,203,203,28,1,59_8568373b727f29d67ba6ce4c360dd918c8b08b13495fca56bdda5e82_circblurint.jpg,2.064896,0.505688,circularblurringint,brfr09,2022-06-13_11h02.21.185,ratings,2022.1.1,Win32,60.0060006
-1.994382022,1.6779,0.95505618,2.9657,0,204,204,233,1,407_578d31d32e806706dde2563213f130b90e621abfed0e47ecabd85d27_circblurext.jpg,3.5873,-0.444444,circularblurringext,brfr09,2022-06-13_11h02.21.185,ratings,2022.1.1,Win32,60.0060006
2.949438202,3.3804,2.986891386,4.5402,0,205,205,522,1,877_cab3efed0c9ff4552037df6c1ea4ea9713f915c94592a14dbf2799da_orig.jpg,3.174604,0.3174604,original,brfr09,2022-06-13_11h02.21.185,ratings,2022.1.1,Win32,60.0060006
-0.074906367,6.2245,-0.056179775,7.9044,0,206,206,386,1,646_577760d718dab44c6f04d77408c5644a120065ce07a9503957d0850a_edges.jpg,-2.690668,2.61324,edges,brfr09,2022-06-13_11h02.21.185,ratings,2022.1.1,Win32,60.0060006
2.97752809,2.1262,-2.911985019,3.3115,0,207,207,547,1,1010_06d15f44b979c086561137000ec070ba4cd479856f92840a7850b2bf_bw.jpg,0.189786,-0.189786,blackwhite,brfr09,2022-06-13_11h02.21.185,ratings,2022.1.1,Win32,60.0060006
-2.097378277,1.7417,1.058052434,3.0936,0,208,208,485,1,759_95e1c46ed9a337414d5c8eada8fa8b9632e18751f5ce6ed587806e91_circblurext.jpg,2.126984,0.0,circularblurringext,brfr09,2022-06-13_11h02.21.185,ratings,2022.1.1,Win32,60.0060006
-2.041198502,2.2832,1.06741573,3.604,0,209,209,273,1,434_ba36d91204d7e578001f6a545d7501e65d209554def5a3c8b7583825_blur.jpg,-3.523808,1.428572,blurring,brfr09,2022-06-13_11h02.21.185,ratings,2022.1.1,Win32,60.0060006
-2.031835206,2.8278,1.020599251,4.6299,0,210,210,81,1,242_85283f6935a89812ab229dcad9ba184529c9242ac3106d768ecf3ab3_blur.jpg,2.14918,-0.2949852,blurring,brfr09,2022-06-13_11h02.21.185,ratings,2022.1.1,Win32,60.0060006
1.029962547,3.2594,-1.011235955,5.7212,0,211,211,223,1,403_57ac47f43882fc031a6067b1a388c0b2cbe8708dcbd2ff1019932eff_bw.jpg,-3.333332,-1.396824,blackwhite,brfr09,2022-06-13_11h02.21.185,ratings,2022.1.1,Win32,60.0060006
-2.031835206,1.9204,1.095505618,2.8203,0,212,212,173,1,365_45a719cabbc9aa308c4fcb30d529489c6966ac4073874af84f665c61_circblurext.jpg,2.507936,-1.968252,circularblurringext,brfr09,2022-06-13_11h02.21.185,ratings,2022.1.1,Win32,60.0060006
0.889513109,4.5765,-1.058052434,7.4536,0,213,213,529,1,915_dc9fd40a3b5d64a180833a7bac86e7556c24f681f473fe255e41f936_bw.jpg,-3.09294,-0.918696,blackwhite,brfr09,2022-06-13_11h02.21.185,ratings,2022.1.1,Win32,60.0060006
-1.058052434,7.277,0.898876404,9.854,0,214,214,493,1,824_b1d91cc824ce0d3d383d3147da88d3d6dbaf6be918bab79e3ec8f501_bw.jpg,-3.645176,-1.432784,blackwhite,brfr09,2022-06-13_11h02.21.185,ratings,2022.1.1,Win32,60.0060006
3.033707865,1.6462,2.93071161,4.246,0,215,215,229,1,407_578d31d32e806706dde2563213f130b90e621abfed0e47ecabd85d27_bw.jpg,3.5873,-0.444444,blackwhite,brfr09,2022-06-13_11h02.21.185,ratings,2022.1.1,Win32,60.0060006
-0.028089888,2.7364,2.808988764,5.9814,0,216,216,91,1,258_d26019382777d2159a974a7654923e71598135ce2cd710cea1f92865_bw.jpg,3.497684,-0.61104,blackwhite,brfr09,2022-06-13_11h02.21.185,ratings,2022.1.1,Win32,60.0060006
0.917602996,10.1207,-1.086142322,13.5382,0,217,217,168,1,365_45a719cabbc9aa308c4fcb30d529489c6966ac4073874af84f665c61_orig.jpg,2.507936,-1.968252,original,brfr09,2022-06-13_11h02.21.185,ratings,2022.1.1,Win32,60.0060006
-1.994382022,5.8968,1.919475655,7.8035,0,218,218,494,1,824_b1d91cc824ce0d3d383d3147da88d3d6dbaf6be918bab79e3ec8f501_edges.jpg,-3.645176,-1.432784,edges,brfr09,2022-06-13_11h02.21.185,ratings,2022.1.1,Win32,60.0060006
-2.172284644,1.9946,2.003745318,4.0705,0,219,219,261,1,416_8a1f874e0057d67a4e6955865ba88b2d8ce2c8b4469589307687a723_blur.jpg,-1.753336,3.088264,blurring,brfr09,2022-06-13_11h02.21.185,ratings,2022.1.1,Win32,60.0060006
2.874531835,4.0988,2.031835206,7.0048,0,220,220,54,1,137_0e6a04243c0a42a5e2528a2d181255ca2a4b7bd6e7978c5c2059c69f_orig.jpg,-0.95238,2.095236,original,brfr09,2022-06-13_11h02.21.185,ratings,2022.1.1,Win32,60.0060006
1.938202247,2.2938,2.078651685,4.3203,0,221,221,500,1,854_081a8409e4d6d10923b2dedcc16a3fca405fcd602e55a20d84cac69d_edges.jpg,3.088264,1.21538,edges,brfr09,2022-06-13_11h02.21.185,ratings,2022.1.1,Win32,60.0060006
2.088014981,2.3225,-2.415730337,4.4442,0,222,222,170,1,365_45a719cabbc9aa308c4fcb30d529489c6966ac4073874af84f665c61_edges.jpg,2.507936,-1.968252,edges,brfr09,2022-06-13_11h02.21.185,ratings,2022.1.1,Win32,60.0060006
2.996254682,2.0602,3.061797753,3.0872,0,223,223,481,1,759_95e1c46ed9a337414d5c8eada8fa8b9632e18751f5ce6ed587806e91_bw.jpg,2.126984,0.0,blackwhite,brfr09,2022-06-13_11h02.21.185,ratings,2022.1.1,Win32,60.0060006
2.97752809,2.7417,-3.052434457,5.0138,0,224,224,426,1,694_7a14b8ab7c564dcb0f628c4de7f6cb54e4c5f6601f774bf167641c37_orig.jpg,1.819588,0.116144,original,brfr09,2022-06-13_11h02.21.185,ratings,2022.1.1,Win32,60.0060006
3.080524345,4.2437,-2.949438202,5.6868,0,225,225,422,1,692_e3e3bf88684fbbcdb9849a4147f9e2fcd39b0f083554a829aca4e9fa_edges.jpg,-0.44522,3.135888,edges,brfr09,2022-06-13_11h02.21.185,ratings,2022.1.1,Win32,60.0060006
-2.078651685,2.8313,1.132958801,4.0649,0,226,226,308,1,455_34a7d8167619d110206c369e3f7dce8a3f99db763a9d8e2b956501d3_edges.jpg,-2.526412,-0.3827896,edges,brfr09,2022-06-13_11h02.21.185,ratings,2022.1.1,Win32,60.0060006
0.936329588,2.472,0.973782772,7.6541,0,227,227,534,1,986_a77edb21e78bc3a6aa7406517824596b3496ad6c657b6befb84cf370_orig.jpg,-3.906316,-0.60496,original,brfr09,2022-06-13_11h02.21.185,ratings,2022.1.1,Win32,60.0060006
-2.968164794,3.0303,1.891385768,5.9801,0,228,228,572,1,1039_d64da8480fc6e94dcdc513237d600570ae0b9fe48795ac6a8b2d29a7_edges.jpg,-2.507936,-1.142856,edges,brfr09,2022-06-13_11h02.21.185,ratings,2022.1.1,Win32,60.0060006
-1.919475655,3.4184,1.001872659,4.2703,0,229,229,179,1,368_6507b94d7d0199f14efd3706db30c9c44b96085f84e9cc7792e3e0ae_circblurext.jpg,1.959544,0.400336,circularblurringext,brfr09,2022-06-13_11h02.21.185,ratings,2022.1.1,Win32,60.0060006
3.08988764,2.2207,2.986891386,3.2243,0,230,230,49,1,112_b6a4ce721c2e42943d7d8b168751d74cd2f372b1cd4fed5a4404faec_bw.jpg,2.107036,0.505688,blackwhite,brfr09,2022-06-13_11h02.21.185,ratings,2022.1.1,Win32,60.0060006
0.018726592,2.1908,-2.041198502,3.711,0,231,231,360,1,508_a7a9519cdc7aad6844030f4e6cd96cffd1b9c49b71e20ea52789bda2_orig.jpg,-3.000388,-1.29694,original,brfr09,2022-06-13_11h02.21.185,ratings,2022.1.1,Win32,60.0060006
3.867041199,1.7208,3.941947566,2.6165,0,232,232,114,1,332_4d584229bdae2e1782f77f0e953e528f13c3dfa79b4b94736c0310fa_orig.jpg,3.157348,0.483092,original,brfr09,2022-06-13_11h02.21.185,ratings,2022.1.1,Win32,60.0060006
2.958801498,1.9244,2.940074906,2.8874,0,233,233,148,1,354_e46c3ec6fb00773f64f2bcd212385f253c389808fe724b7cf8611051_circblurint.jpg,2.018292,0.0,circularblurringint,brfr09,2022-06-13_11h02.21.185,ratings,2022.1.1,Win32,60.0060006
2.949438202,2.2203,2.893258427,3.3063,0,234,234,104,1,284_cdcbd54fc995081ac95c8b2c37a19cebb341f61a8eb268cee1623492_edges.jpg,-1.015872,2.095236,edges,brfr09,2022-06-13_11h02.21.185,ratings,2022.1.1,Win32,60.0060006
-1.919475655,1.5724,1.11423221,2.9804,0,235,235,221,1,396_208259ea431d47bb7f3946213eb099834eb119756ce304ad473d4d9f_circblurext.jpg,2.857144,-0.3809524,circularblurringext,brfr09,2022-06-13_11h02.21.185,ratings,2022.1.1,Win32,60.0060006
2.968164794,2.0869,2.902621723,3.598,0,236,236,184,1,369_98db62a1bdabfd1bc551180da6658005b461585cd21614633cf76470_circblurint.jpg,2.190476,-0.03174604,circularblurringint,brfr09,2022-06-13_11h02.21.185,ratings,2022.1.1,Win32,60.0060006
-2.02247191,1.6718,1.123595506,2.84,0,237,237,551,1,1010_06d15f44b979c086561137000ec070ba4cd479856f92840a7850b2bf_circblurext.jpg,0.189786,-0.189786,circularblurringext,brfr09,2022-06-13_11h02.21.185,ratings,2022.1.1,Win32,60.0060006
2.02247191,6.0626,-2.940074906,8.9665,0,238,238,462,1,736_bb85db1bcda8eb34299aa5791ac65a0a7c343266eb2d6e6e328ec0e1_orig.jpg,3.650792,-0.03174604,original,brfr09,2022-06-13_11h02.21.185,ratings,2022.1.1,Win32,60.0060006
-1.254681648,13.7722,1.001872659,15.7035,0,239,239,454,1,716_2ab64478147184c4df720a52cf621875addc9007cb2967e4a9a88909_circblurint.jpg,2.428484,0.0,circularblurringint,brfr09,2022-06-13_11h02.21.185,ratings,2022.1.1,Win32,60.0060006
-2.968164794,3.1879,2.041198502,5.1722,0,240,240,357,1,500_3b520c7f352afa1a9f8c07e56cc0588cdc04d25ff6e7b602b5e280cb_blur.jpg,-0.8328,3.11766,blurring,brfr09,2022-06-13_11h02.21.185,ratings,2022.1.1,Win32,60.0060006
-0.018726592,4.6076,-1.058052434,6.0318,0,241,241,286,1,440_dc6413e2b65369ee2587f4d85621742fe4ca87392d0a8ad2ea7d94e3_circblurint.jpg,-3.016216,1.69404,circularblurringint,brfr09,2022-06-13_11h02.21.185,ratings,2022.1.1,Win32,60.0060006
-2.125468165,1.687,1.076779026,2.9565,0,242,242,219,1,396_208259ea431d47bb7f3946213eb099834eb119756ce304ad473d4d9f_blur.jpg,2.857144,-0.3809524,blurring,brfr09,2022-06-13_11h02.21.185,ratings,2022.1.1,Win32,60.0060006
-2.041198502,1.824,1.11423221,2.9701,0,243,243,341,1,492_a1a4d288d3bc486c83c3b6a835c42891989f5ba781633932298a7676_circblurext.jpg,3.406892,-0.44522,circularblurringext,brfr09,2022-06-13_11h02.21.185,ratings,2022.1.1,Win32,60.0060006
-2.02247191,1.3703,0.936329588,2.4653,0,244,244,455,1,716_2ab64478147184c4df720a52cf621875addc9007cb2967e4a9a88909_circblurext.jpg,2.428484,0.0,circularblurringext,brfr09,2022-06-13_11h02.21.185,ratings,2022.1.1,Win32,60.0060006
-2.041198502,1.5081,0.945692884,2.444,0,245,245,105,1,284_cdcbd54fc995081ac95c8b2c37a19cebb341f61a8eb268cee1623492_blur.jpg,-1.015872,2.095236,blurring,brfr09,2022-06-13_11h02.21.185,ratings,2022.1.1,Win32,60.0060006
2.986891386,3.8972,2.97752809,5.2753,0,246,246,144,1,354_e46c3ec6fb00773f64f2bcd212385f253c389808fe724b7cf8611051_orig.jpg,2.018292,0.0,original,brfr09,2022-06-13_11h02.21.185,ratings,2022.1.1,Win32,60.0060006
0.95505618,4.6835,0.9082397,7.7381,0,247,247,316,1,459_46e25de472bb056cb470716d30937415f7344bfc4354d6eb710d8c9f_circblurint.jpg,0.03174604,0.0,circularblurringint,brfr09,2022-06-13_11h02.21.185,ratings,2022.1.1,Win32,60.0060006
-2.013108614,1.5428,1.11423221,2.3532,0,248,248,125,1,347_27f0e47c2722605b950ccf9fa900f78271e4c3c874064ab5dacac160_circblurext.jpg,1.838948,0.3097172,circularblurringext,brfr09,2022-06-13_11h02.21.185,ratings,2022.1.1,Win32,60.0060006
-0.028089888,2.4105,0.992509363,3.7947,0,249,249,156,1,358_157f8ac929713531a15b1ecf115e7b659cb90e83d675251e368d165f_orig.jpg,-3.777776,-0.571428,original,brfr09,2022-06-13_11h02.21.185,ratings,2022.1.1,Win32,60.0060006
0.964419476,3.1201,-1.151685393,6.3884,0,250,250,560,1,1022_cf035e583d41a856836f8b0ae314ecbe79dffd9e40ef6a08cc26028f_edges.jpg,-0.2516452,3.05846,edges,brfr09,2022-06-13_11h02.21.185,ratings,2022.1.1,Win32,60.0060006
-1.048689139,10.0119,0.926966292,10.8293,0,251,251,239,1,410_9633c4ff6e8888fcfca59a60ca86e9606d3e0736500a254101bdf295_circblurext.jpg,-0.3677892,2.981028,circularblurringext,brfr09,2022-06-13_11h02.21.185,ratings,2022.1.1,Win32,60.0060006
-1.956928839,2.3375,1.020599251,3.7817,0,252,252,23,1,48_2cc936b2483ab2944c9158e163342b874ef6c1492fd8fca08c0e096e_circblurext.jpg,-1.264224,-0.779604,circularblurringext,brfr09,2022-06-13_11h02.21.185,ratings,2022.1.1,Win32,60.0060006
-2.968164794,2.6385,2.013108614,3.7374,0,253,253,251,1,414_0187bdf7007109b487865b6a9d388997a6817acf052a6a7cdd5b39d9_circblurext.jpg,-2.786708,-1.133056,circularblurringext,brfr09,2022-06-13_11h02.21.185,ratings,2022.1.1,Win32,60.0060006
0.018726592,4.9304,-0.018726592,8.81,0,254,254,13,1,39_2fafccaa4dc69045a05845f59c6b3cd2edcf7e0e0c108b24e553afe0_bw.jpg,2.022756,0.463548,blackwhite,brfr09,2022-06-13_11h02.21.185,ratings,2022.1.1,Win32,60.0060006
-1.994382022,1.8729,0.880149813,2.8035,0,255,255,315,1,459_46e25de472bb056cb470716d30937415f7344bfc4354d6eb710d8c9f_blur.jpg,0.03174604,0.0,blurring,brfr09,2022-06-13_11h02.21.185,ratings,2022.1.1,Win32,60.0060006
1.928838951,3.2675,0.983146067,6.454,0,256,256,590,1,1228_557412d34d6a70b7c5d222e030aa485b351a4574e8ba1a3112d1d13d_edges.jpg,2.137444,0.703464,edges,brfr09,2022-06-13_11h02.21.185,ratings,2022.1.1,Win32,60.0060006
-0.102996255,3.2536,-2.041198502,4.2743,0,257,257,420,1,692_e3e3bf88684fbbcdb9849a4147f9e2fcd39b0f083554a829aca4e9fa_orig.jpg,-0.44522,3.135888,original,brfr09,2022-06-13_11h02.21.185,ratings,2022.1.1,Win32,60.0060006
-1.11423221,9.8963,0.889513109,11.6324,0,258,258,352,1,498_305b74cdc4784d9d25e72724302e5402def70177ea31ae7e25fab66b_circblurint.jpg,3.04762,-0.444444,circularblurringint,brfr09,2022-06-13_11h02.21.185,ratings,2022.1.1,Win32,60.0060006
0.945692884,2.1586,-1.938202247,3.3375,0,259,259,128,1,349_18d92ef5c21ca70a3dd237aad251594e1688bbe01d8cff37b89c46b8_edges.jpg,-2.74874,-1.258228,edges,brfr09,2022-06-13_11h02.21.185,ratings,2022.1.1,Win32,60.0060006
-2.041198502,3.0595,1.020599251,5.4116,0,260,260,139,1,353_44e285740cb41818482ac93fc5fbd72c18029444a1d7506c9fc053e7_bw.jpg,-3.232676,-0.87108,blackwhite,brfr09,2022-06-13_11h02.21.185,ratings,2022.1.1,Win32,60.0060006
-2.02247191,3.1181,0.842696629,4.0799,0,261,261,243,1,411_adfd0d5782129756321ff671d0cfb712528504c66c863df11aabd1e7_blur.jpg,-3.392332,-1.369576,blurring,brfr09,2022-06-13_11h02.21.185,ratings,2022.1.1,Win32,60.0060006
-2.088014981,6.0098,0.917602996,6.8279,0,262,262,465,1,736_bb85db1bcda8eb34299aa5791ac65a0a7c343266eb2d6e6e328ec0e1_blur.jpg,3.650792,-0.03174604,blurring,brfr09,2022-06-13_11h02.21.185,ratings,2022.1.1,Win32,60.0060006
-2.031835206,4.2467,0.992509363,5.17,0,263,263,371,1,616_05a637f5281666f53d4e2ef69351485fc21d629b37ee2006b2076eb6_circblurext.jpg,-2.380952,-0.832364,circularblurringext,brfr09,2022-06-13_11h02.21.185,ratings,2022.1.1,Win32,60.0060006
-0.028089888,5.5546,1.029962547,6.9549,0,264,264,478,1,748_e519892faa7c772a0afaf9eeff36cf0e411574027ab3d9aa4947a048_circblurint.jpg,-1.813112,3.307432,circularblurringint,brfr09,2022-06-13_11h02.21.185,ratings,2022.1.1,Win32,60.0060006
-1.947565543,2.7083,1.001872659,3.7721,0,265,265,587,1,1225_59c67a821456f2cce3e5acf66d7f00076bd02caffc984c1eb0df794e_circblurext.jpg,-0.444444,3.809524,circularblurringext,brfr09,2022-06-13_11h02.21.185,ratings,2022.1.1,Win32,60.0060006
1.039325843,3.6464,0.973782772,5.4203,0,266,266,200,1,380_34772591c787182a37724027eac6948ebc9d4064f6a601d23b923b8e_edges.jpg,2.222224,-0.063492,edges,brfr09,2022-06-13_11h02.21.185,ratings,2022.1.1,Win32,60.0060006
3.061797753,2.5104,-3.93258427,4.5584,0,267,267,151,1,355_00a76f54934d36566dd0e7b091b8aa6a56d8e6b32d349aa578a10b45_bw.jpg,2.910052,0.3439152,blackwhite,brfr09,2022-06-13_11h02.21.185,ratings,2022.1.1,Win32,60.0060006
-2.06928839,1.6204,1.123595506,2.9146,0,268,268,389,1,646_577760d718dab44c6f04d77408c5644a120065ce07a9503957d0850a_circblurext.jpg,-2.690668,2.61324,circularblurringext,brfr09,2022-06-13_11h02.21.185,ratings,2022.1.1,Win32,60.0060006
-1.956928839,5.6817,1.891385768,6.6439,0,269,269,14,1,39_2fafccaa4dc69045a05845f59c6b3cd2edcf7e0e0c108b24e553afe0_edges.jpg,2.022756,0.463548,edges,brfr09,2022-06-13_11h02.21.185,ratings,2022.1.1,Win32,60.0060006
2.883895131,2.2535,-3.024344569,3.8702,0,270,270,230,1,407_578d31d32e806706dde2563213f130b90e621abfed0e47ecabd85d27_edges.jpg,3.5873,-0.444444,edges,brfr09,2022-06-13_11h02.21.185,ratings,2022.1.1,Win32,60.0060006
3.005617978,1.8307,-2.02247191,2.7746,0,271,271,20,1,48_2cc936b2483ab2944c9158e163342b874ef6c1492fd8fca08c0e096e_edges.jpg,-1.264224,-0.779604,edges,brfr09,2022-06-13_11h02.21.185,ratings,2022.1.1,Win32,60.0060006
-0.964419476,4.2434,0.79588015,6.2765,0,272,272,237,1,410_9633c4ff6e8888fcfca59a60ca86e9606d3e0736500a254101bdf295_blur.jpg,-0.3677892,2.981028,blurring,brfr09,2022-06-13_11h02.21.185,ratings,2022.1.1,Win32,60.0060006
-0.102996255,5.1544,-1.095505618,7.2588,0,273,273,130,1,349_18d92ef5c21ca70a3dd237aad251594e1688bbe01d8cff37b89c46b8_circblurint.jpg,-2.74874,-1.258228,circularblurringint,brfr09,2022-06-13_11h02.21.185,ratings,2022.1.1,Win32,60.0060006
3.024344569,4.1343,-3.005617978,8.7258,0,274,274,186,1,369_c99797771115d7627d4abe3415f814497288f91a7be1a04c17c776b9_orig.jpg,3.619824,-0.174216,original,brfr09,2022-06-13_11h02.21.185,ratings,2022.1.1,Win32,60.0060006
-1.039325843,7.0721,1.189138577,10.8481,0,275,275,415,1,692_7d7eaf20e6de8956f0fca7500ace97a8599aa8b605a7d690cdb28724_bw.jpg,-2.063492,-1.26984,blackwhite,brfr09,2022-06-13_11h02.21.185,ratings,2022.1.1,Win32,60.0060006
-0.131086142,3.4614,-0.028089888,5.0292,0,276,276,140,1,353_44e285740cb41818482ac93fc5fbd72c18029444a1d7506c9fc053e7_edges.jpg,-3.232676,-0.87108,edges,brfr09,2022-06-13_11h02.21.185,ratings,2022.1.1,Win32,60.0060006
3.014981273,3.1161,-2.921348315,5.3033,0,277,277,1,1,13_771f4fcf0a212d25d6a78565e7f34cc5ddd823e7afbdc77ef063326e_bw.jpg,2.190476,0.0,blackwhite,brfr09,2022-06-13_11h02.21.185,ratings,2022.1.1,Win32,60.0060006
2.921348315,2.5466,-2.846441948,7.2761,0,278,278,516,1,860_05c4e22518a30d3d2add458a8fc6488f87b9b02dd8e385ded939f025_orig.jpg,1.955092,0.3097172,original,brfr09,2022-06-13_11h02.21.185,ratings,2022.1.1,Win32,60.0060006
-2.06928839,1.958,1.039325843,4.446,0,279,279,29,1,59_8568373b727f29d67ba6ce4c360dd918c8b08b13495fca56bdda5e82_circblurext.jpg,2.064896,0.505688,circularblurringext,brfr09,2022-06-13_11h02.21.185,ratings,2022.1.1,Win32,60.0060006
-2.883895131,7.06,2.116104869,8.8063,0,280,280,513,1,858_2f6539ee36aba48c38dc716d4f7c3ae93367d6ddf23ab41745d4172c_blur.jpg,0.0623832,0.176752,blurring,brfr09,2022-06-13_11h02.21.185,ratings,2022.1.1,Win32,60.0060006
-2.865168539,2.5312,1.75093633,3.507,0,281,281,291,1,442_7449d79dae5d652af9b2429872cabdef938646ba024db2f431b3b28d_blur.jpg,1.619048,0.126984,blurring,brfr09,2022-06-13_11h02.21.185,ratings,2022.1.1,Win32,60.0060006
-1.058052434,4.0523,2.041198502,8.7206,0,282,282,240,1,411_adfd0d5782129756321ff671d0cfb712528504c66c863df11aabd1e7_orig.jpg,-3.392332,-1.369576,original,brfr09,2022-06-13_11h02.21.185,ratings,2022.1.1,Win32,60.0060006
-2.041198502,2.343,1.151685393,3.7701,0,283,283,27,1,59_8568373b727f29d67ba6ce4c360dd918c8b08b13495fca56bdda5e82_blur.jpg,2.064896,0.505688,blurring,brfr09,2022-06-13_11h02.21.185,ratings,2022.1.1,Win32,60.0060006
-2.958801498,2.2539,1.938202247,3.3368,0,284,284,527,1,877_cab3efed0c9ff4552037df6c1ea4ea9713f915c94592a14dbf2799da_circblurext.jpg,3.174604,0.3174604,circularblurringext,brfr09,2022-06-13_11h02.21.185,ratings,2022.1.1,Win32,60.0060006
-0.037453184,2.3475,0.983146067,76.8204,0,285,285,553,1,1014_a5c212ca979d482cf94c2db7697aba75620391a64b030ab7ad2bbecf_bw.jpg,-3.174604,-1.374372,blackwhite,brfr09,2022-06-13_11h02.21.185,ratings,2022.1.1,Win32,60.0060006
-2.949438202,2.2036,2.949438202,3.7154,0,286,286,417,1,692_7d7eaf20e6de8956f0fca7500ace97a8599aa8b605a7d690cdb28724_blur.jpg,-2.063492,-1.26984,blurring,brfr09,2022-06-13_11h02.21.185,ratings,2022.1.1,Win32,60.0060006
-2.893258427,3.861,1.947565543,6.9782,0,287,287,496,1,824_b1d91cc824ce0d3d383d3147da88d3d6dbaf6be918bab79e3ec8f501_circblurint.jpg,-3.645176,-1.432784,circularblurringint,brfr09,2022-06-13_11h02.21.185,ratings,2022.1.1,Win32,60.0060006
-1.891385768,3.4398,2.106741573,4.6795,0,288,288,585,1,1225_59c67a821456f2cce3e5acf66d7f00076bd02caffc984c1eb0df794e_blur.jpg,-0.444444,3.809524,blurring,brfr09,2022-06-13_11h02.21.185,ratings,2022.1.1,Win32,60.0060006
-0.074906367,6.6253,-1.039325843,10.105,0,289,289,554,1,1014_a5c212ca979d482cf94c2db7697aba75620391a64b030ab7ad2bbecf_edges.jpg,-3.174604,-1.374372,edges,brfr09,2022-06-13_11h02.21.185,ratings,2022.1.1,Win32,60.0060006
-0.973782772,9.5498,1.011235955,10.687,0,290,290,528,1,915_dc9fd40a3b5d64a180833a7bac86e7556c24f681f473fe255e41f936_orig.jpg,-3.09294,-0.918696,original,brfr09,2022-06-13_11h02.21.185,ratings,2022.1.1,Win32,60.0060006
-0.037453184,7.8984,0.973782772,11.2102,0,291,291,512,1,858_2f6539ee36aba48c38dc716d4f7c3ae93367d6ddf23ab41745d4172c_edges.jpg,0.0623832,0.176752,edges,brfr09,2022-06-13_11h02.21.185,ratings,2022.1.1,Win32,60.0060006
2.02247191,3.2525,1.91011236,4.9981,0,292,292,50,1,112_b6a4ce721c2e42943d7d8b168751d74cd2f372b1cd4fed5a4404faec_edges.jpg,2.107036,0.505688,edges,brfr09,2022-06-13_11h02.21.185,ratings,2022.1.1,Win32,60.0060006
-2.059925094,2.5119,0.917602996,3.642,0,293,293,161,1,358_157f8ac929713531a15b1ecf115e7b659cb90e83d675251e368d165f_circblurext.jpg,-3.777776,-0.571428,circularblurringext,brfr09,2022-06-13_11h02.21.185,ratings,2022.1.1,Win32,60.0060006
-1.938202247,3.2609,1.086142322,4.7055,0,294,294,126,1,349_18d92ef5c21ca70a3dd237aad251594e1688bbe01d8cff37b89c46b8_orig.jpg,-2.74874,-1.258228,original,brfr09,2022-06-13_11h02.21.185,ratings,2022.1.1,Win32,60.0060006
-3.005617978,2.3741,2.940074906,4.142,0,295,295,318,1,460_e06b3af7ff2f2bfb5f9b6e3d5dc25b9aaa40b84823fac8fd934621bd_orig.jpg,-3.430992,-1.607468,original,brfr09,2022-06-13_11h02.21.185,ratings,2022.1.1,Win32,60.0060006
-0.964419476,2.056,0.9082397,3.6877,0,296,296,163,1,361_b5541309527dc3c2422f45a95ebb0ed32005e6fe10d0489a1ff1fbdc_bw.jpg,-3.987612,-0.2516452,blackwhite,brfr09,2022-06-13_11h02.21.185,ratings,2022.1.1,Win32,60.0060006
-1.058052434,2.5736,0.917602996,3.6616,0,297,297,309,1,455_34a7d8167619d110206c369e3f7dce8a3f99db763a9d8e2b956501d3_blur.jpg,-2.526412,-0.3827896,blurring,brfr09,2022-06-13_11h02.21.185,ratings,2022.1.1,Win32,60.0060006
-0.093632959,2.6867,0.964419476,8.9628,0,298,298,258,1,416_8a1f874e0057d67a4e6955865ba88b2d8ce2c8b4469589307687a723_orig.jpg,-1.753336,3.088264,original,brfr09,2022-06-13_11h02.21.185,ratings,2022.1.1,Win32,60.0060006
-2.059925094,1.7933,1.029962547,2.6571,0,299,299,255,1,416_5eb54976bb41ce2a6d129ef985f792e716f010fb9b69b15f50f5d2db_blur.jpg,-2.58766,2.602972,blurring,brfr09,2022-06-13_11h02.21.185,ratings,2022.1.1,Win32,60.0060006
1.900749064,2.4043,-2.106741573,4.9821,0,300,300,10,1,28_6318543b74eeb646a1735477ebc023fdc9ac3849bc0db1957c272a26_circblurint.jpg,2.811244,-0.74584,circularblurringint,brfr09,2022-06-13_11h02.21.185,ratings,2022.1.1,Win32,60.0060006
2.902621723,2.3535,2.949438202,5.0873,0,301,301,480,1,759_95e1c46ed9a337414d5c8eada8fa8b9632e18751f5ce6ed587806e91_orig.jpg,2.126984,0.0,original,brfr09,2022-06-13_11h02.21.185,ratings,2022.1.1,Win32,60.0060006
-0.983146067,4.6601,1.011235955,5.5154,0,302,302,472,1,741_2b218fb015e3da83db73cacdb52e61e0c2534c1fe255bb1c5c74d47f_circblurint.jpg,3.140096,0.448584,circularblurringint,brfr09,2022-06-13_11h02.21.185,ratings,2022.1.1,Win32,60.0060006
2.940074906,2.7577,2.902621723,3.721,0,303,303,583,1,1225_59c67a821456f2cce3e5acf66d7f00076bd02caffc984c1eb0df794e_bw.jpg,-0.444444,3.809524,blackwhite,brfr09,2022-06-13_11h02.21.185,ratings,2022.1.1,Win32,60.0060006
2.911985019,1.9457,-2.996254682,3.587,0,304,304,504,1,855_66d893451dfd1e7615132071c6c8a82b02dc2b37781cd89400883b26_orig.jpg,2.69484,0.2143624,original,brfr09,2022-06-13_11h02.21.185,ratings,2022.1.1,Win32,60.0060006
-1.048689139,9.5529,2.106741573,11.5942,0,305,305,61,1,156_08e8cf8f04630e9213e610580de73f51572d1d589878648700bae4dc_bw.jpg,2.222224,0.0,blackwhite,brfr09,2022-06-13_11h02.21.185,ratings,2022.1.1,Win32,60.0060006
1.142322097,4.9097,1.029962547,14.9768,0,306,306,523,1,877_cab3efed0c9ff4552037df6c1ea4ea9713f915c94592a14dbf2799da_bw.jpg,3.174604,0.3174604,blackwhite,brfr09,2022-06-13_11h02.21.185,ratings,2022.1.1,Win32,60.0060006
2.958801498,1.8232,-3.923220974,3.5435,0,307,307,378,1,640_0ddb4981a5f5842ed5b4f7ef941be53779189df5e718b1fc5475ad80_orig.jpg,2.571428,-1.873016,original,brfr09,2022-06-13_11h02.21.185,ratings,2022.1.1,Win32,60.0060006
-2.02247191,3.3956,1.882022472,5.0296,0,308,308,375,1,620_9674719009d75dcfeaed7f15932c43e1fd1af5e25d47b8aadd61efe2_blur.jpg,-0.561364,1.142084,blurring,brfr09,2022-06-13_11h02.21.185,ratings,2022.1.1,Win32,60.0060006
-0.102996255,4.0728,1.020599251,8.3987,0,309,309,220,1,396_208259ea431d47bb7f3946213eb099834eb119756ce304ad473d4d9f_circblurint.jpg,2.857144,-0.3809524,circularblurringint,brfr09,2022-06-13_11h02.21.185,ratings,2022.1.1,Win32,60.0060006
1.891385768,2.5369,2.003745318,3.4711,0,310,310,582,1,1225_59c67a821456f2cce3e5acf66d7f00076bd02caffc984c1eb0df794e_orig.jpg,-0.444444,3.809524,original,brfr09,2022-06-13_11h02.21.185,ratings,2022.1.1,Win32,60.0060006
-2.02247191,3.6954,0.964419476,4.8391,0,311,311,569,1,1037_e2eb929a6de79a63ce6cfe5321fcb74a203b134e4094932d90b01d99_circblurext.jpg,2.651956,0.0,circularblurringext,brfr09,2022-06-13_11h02.21.185,ratings,2022.1.1,Win32,60.0060006
-2.050561798,7.6219,0.814606742,8.9203,0,312,312,201,1,380_34772591c787182a37724027eac6948ebc9d4064f6a601d23b923b8e_blur.jpg,2.222224,-0.063492,blurring,brfr09,2022-06-13_11h02.21.185,ratings,2022.1.1,Win32,60.0060006
-2.031835206,2.7931,1.048689139,3.448,0,313,313,93,1,258_d26019382777d2159a974a7654923e71598135ce2cd710cea1f92865_blur.jpg,3.497684,-0.61104,blurring,brfr09,2022-06-13_11h02.21.185,ratings,2022.1.1,Win32,60.0060006
-0.964419476,3.8346,0.9082397,5.3243,0,314,314,424,1,692_e3e3bf88684fbbcdb9849a4147f9e2fcd39b0f083554a829aca4e9fa_circblurint.jpg,-0.44522,3.135888,circularblurringint,brfr09,2022-06-13_11h02.21.185,ratings,2022.1.1,Win32,60.0060006
2.041198502,2.1656,-3.88576779,7.3576,0,315,315,366,1,616_05a637f5281666f53d4e2ef69351485fc21d629b37ee2006b2076eb6_orig.jpg,-2.380952,-0.832364,original,brfr09,2022-06-13_11h02.21.185,ratings,2022.1.1,Win32,60.0060006
-0.046816479,3.3736,1.11423221,5.4618,0,316,316,276,1,440_9bf7e8609729bf888835168834da6c3ff30b75d0d4f36e2ee6918bcc_orig.jpg,-2.284164,2.710028,original,brfr09,2022-06-13_11h02.21.185,ratings,2022.1.1,Win32,60.0060006
-0.018726592,4.5289,1.020599251,8.951,0,317,317,350,1,498_305b74cdc4784d9d25e72724302e5402def70177ea31ae7e25fab66b_edges.jpg,3.04762,-0.444444,edges,brfr09,2022-06-13_11h02.21.185,ratings,2022.1.1,Win32,60.0060006
0.046816479,3.6317,0.992509363,5.0317,0,318,318,376,1,620_9674719009d75dcfeaed7f15932c43e1fd1af5e25d47b8aadd61efe2_circblurint.jpg,-0.561364,1.142084,circularblurringint,brfr09,2022-06-13_11h02.21.185,ratings,2022.1.1,Win32,60.0060006
2.097378277,2.6981,1.994382022,4.0282,0,319,319,199,1,380_34772591c787182a37724027eac6948ebc9d4064f6a601d23b923b8e_bw.jpg,2.222224,-0.063492,blackwhite,brfr09,2022-06-13_11h02.21.185,ratings,2022.1.1,Win32,60.0060006
-0.056179775,1.9465,1.011235955,6.0645,0,320,320,344,1,494_5c6c3b85a2734a43c24bfe337d42ffcc82b7347227804d01c784cef4_edges.jpg,0.03871468,0.0,edges,brfr09,2022-06-13_11h02.21.185,ratings,2022.1.1,Win32,60.0060006
-0.018726592,6.0117,1.076779026,8.0759,0,321,321,430,1,694_7a14b8ab7c564dcb0f628c4de7f6cb54e4c5f6601f774bf167641c37_circblurint.jpg,1.819588,0.116144,circularblurringint,brfr09,2022-06-13_11h02.21.185,ratings,2022.1.1,Win32,60.0060006
1.985018727,3.3807,-1.956928839,6.7146,0,322,322,361,1,508_a7a9519cdc7aad6844030f4e6cd96cffd1b9c49b71e20ea52789bda2_bw.jpg,-3.000388,-1.29694,blackwhite,brfr09,2022-06-13_11h02.21.185,ratings,2022.1.1,Win32,60.0060006
-2.144194757,2.3154,1.91011236,3.4206,0,323,323,71,1,172_c641c6c56ca6b594b773084e1363c852abdb65f988d7ff802ee503f2_circblurext.jpg,0.379572,0.01725328,circularblurringext,brfr09,2022-06-13_11h02.21.185,ratings,2022.1.1,Win32,60.0060006
-0.056179775,2.7327,0.964419476,5.4535,0,324,324,304,1,453_54f106fd1d4b65fa4aa347407127fc30d49f791e81aee3a0bbe44489_circblurint.jpg,2.222224,0.0,circularblurringint,brfr09,2022-06-13_11h02.21.185,ratings,2022.1.1,Win32,60.0060006
-1.882022472,3.0388,1.001872659,4.5204,0,325,325,242,1,411_adfd0d5782129756321ff671d0cfb712528504c66c863df11aabd1e7_edges.jpg,-3.392332,-1.369576,edges,brfr09,2022-06-13_11h02.21.185,ratings,2022.1.1,Win32,60.0060006
1.956928839,2.0243,2.041198502,4.592,0,326,326,566,1,1037_e2eb929a6de79a63ce6cfe5321fcb74a203b134e4094932d90b01d99_edges.jpg,2.651956,0.0,edges,brfr09,2022-06-13_11h02.21.185,ratings,2022.1.1,Win32,60.0060006
1.975655431,8.0719,-1.947565543,9.5131,0,327,327,288,1,442_7449d79dae5d652af9b2429872cabdef938646ba024db2f431b3b28d_orig.jpg,1.619048,0.126984,original,brfr09,2022-06-13_11h02.21.185,ratings,2022.1.1,Win32,60.0060006
-2.968164794,2.5253,1.975655431,5.0929,0,328,328,359,1,500_3b520c7f352afa1a9f8c07e56cc0588cdc04d25ff6e7b602b5e280cb_circblurext.jpg,-0.8328,3.11766,circularblurringext,brfr09,2022-06-13_11h02.21.185,ratings,2022.1.1,Win32,60.0060006
-0.964419476,2.2376,0.964419476,3.4618,0,329,329,134,1,349_8809a67686d34844c915d7700e2ea72ad1c02ae232ae0d3cc0e458d4_edges.jpg,-3.619048,-0.2857144,edges,brfr09,2022-06-13_11h02.21.185,ratings,2022.1.1,Win32,60.0060006
-1.985018727,1.9739,0.889513109,2.7898,0,330,330,339,1,492_a1a4d288d3bc486c83c3b6a835c42891989f5ba781633932298a7676_blur.jpg,3.406892,-0.44522,blurring,brfr09,2022-06-13_11h02.21.185,ratings,2022.1.1,Win32,60.0060006
-1.947565543,1.2536,1.001872659,2.0602,0,331,331,423,1,692_e3e3bf88684fbbcdb9849a4147f9e2fcd39b0f083554a829aca4e9fa_blur.jpg,-0.44522,3.135888,blurring,brfr09,2022-06-13_11h02.21.185,ratings,2022.1.1,Win32,60.0060006
-0.065543071,4.0253,-2.134831461,8.5934,0,332,332,222,1,403_57ac47f43882fc031a6067b1a388c0b2cbe8708dcbd2ff1019932eff_orig.jpg,-3.333332,-1.396824,original,brfr09,2022-06-13_11h02.21.185,ratings,2022.1.1,Win32,60.0060006
-0.037453184,3.613,-1.095505618,8.3097,0,333,333,511,1,858_2f6539ee36aba48c38dc716d4f7c3ae93367d6ddf23ab41745d4172c_bw.jpg,0.0623832,0.176752,blackwhite,brfr09,2022-06-13_11h02.21.185,ratings,2022.1.1,Win32,60.0060006
-1.076779026,7.5467,1.039325843,10.0764,0,334,334,502,1,854_081a8409e4d6d10923b2dedcc16a3fca405fcd602e55a20d84cac69d_circblurint.jpg,3.088264,1.21538,circularblurringint,brfr09,2022-06-13_11h02.21.185,ratings,2022.1.1,Win32,60.0060006
2.116104869,4.166,-3.005617978,6.937,0,335,335,210,1,394_8e3a0cb945144d53bd1ace04b6256237ed9dcbbd9cb83f8a4886b0e6_orig.jpg,-2.593884,2.651956,original,brfr09,2022-06-13_11h02.21.185,ratings,2022.1.1,Win32,60.0060006
1.039325843,2.5208,-0.992509363,4.7773,0,336,336,253,1,416_5eb54976bb41ce2a6d129ef985f792e716f010fb9b69b15f50f5d2db_bw.jpg,-2.58766,2.602972,blackwhite,brfr09,2022-06-13_11h02.21.185,ratings,2022.1.1,Win32,60.0060006
-0.15917603,3.054,1.048689139,4.3498,0,337,337,476,1,748_e519892faa7c772a0afaf9eeff36cf0e411574027ab3d9aa4947a048_edges.jpg,-1.813112,3.307432,edges,brfr09,2022-06-13_11h02.21.185,ratings,2022.1.1,Win32,60.0060006
-2.088014981,5.0607,0.992509363,11.0883,0,338,338,575,1,1039_d64da8480fc6e94dcdc513237d600570ae0b9fe48795ac6a8b2d29a7_circblurext.jpg,-2.507936,-1.142856,circularblurringext,brfr09,2022-06-13_11h02.21.185,ratings,2022.1.1,Win32,60.0060006
-0.983146067,4.3883,0.945692884,8.0098,0,339,339,292,1,442_7449d79dae5d652af9b2429872cabdef938646ba024db2f431b3b28d_circblurint.jpg,1.619048,0.126984,circularblurringint,brfr09,2022-06-13_11h02.21.185,ratings,2022.1.1,Win32,60.0060006
2.078651685,12.0765,2.06928839,13.7982,0,340,340,68,1,172_c641c6c56ca6b594b773084e1363c852abdb65f988d7ff802ee503f2_edges.jpg,0.379572,0.01725328,edges,brfr09,2022-06-13_11h02.21.185,ratings,2022.1.1,Win32,60.0060006
-2.013108614,1.9076,1.039325843,3.1955,0,341,341,99,1,267_792043debad81ce271cec5b3c3bd9d264efc13f362bec9c7a3f72fe7_blur.jpg,1.980616,0.2107036,blurring,brfr09,2022-06-13_11h02.21.185,ratings,2022.1.1,Win32,60.0060006
1.966292135,16.1601,-3.024344569,19.8979,0,342,342,565,1,1037_e2eb929a6de79a63ce6cfe5321fcb74a203b134e4094932d90b01d99_bw.jpg,2.651956,0.0,blackwhite,brfr09,2022-06-13_11h02.21.185,ratings,2022.1.1,Win32,60.0060006
0.065543071,4.7822,-1.048689139,8.6607,0,343,343,370,1,616_05a637f5281666f53d4e2ef69351485fc21d629b37ee2006b2076eb6_circblurint.jpg,-2.380952,-0.832364,circularblurringint,brfr09,2022-06-13_11h02.21.185,ratings,2022.1.1,Win32,60.0060006
-1.104868914,3.3042,1.001872659,4.6767,0,344,344,183,1,369_98db62a1bdabfd1bc551180da6658005b461585cd21614633cf76470_blur.jpg,2.190476,-0.03174604,blurring,brfr09,2022-06-13_11h02.21.185,ratings,2022.1.1,Win32,60.0060006
-2.93071161,5.1709,1.086142322,8.0928,0,345,345,137,1,349_8809a67686d34844c915d7700e2ea72ad1c02ae232ae0d3cc0e458d4_circblurext.jpg,-3.619048,-0.2857144,circularblurringext,brfr09,2022-06-13_11h02.21.185,ratings,2022.1.1,Win32,60.0060006
-2.893258427,1.8538,1.104868914,3.2702,0,346,346,387,1,646_577760d718dab44c6f04d77408c5644a120065ce07a9503957d0850a_blur.jpg,-2.690668,2.61324,blurring,brfr09,2022-06-13_11h02.21.185,ratings,2022.1.1,Win32,60.0060006
0.028089888,2.4881,0.009363296,5.4084,0,347,347,392,1,663_aaf52107fe3a86392530d88b34e86f9d2b6820714cad98d1e3c2cb67_edges.jpg,2.58766,0.0918696,edges,brfr09,2022-06-13_11h02.21.185,ratings,2022.1.1,Win32,60.0060006
1.985018727,3.26,1.947565543,4.5552,0,348,348,116,1,332_4d584229bdae2e1782f77f0e953e528f13c3dfa79b4b94736c0310fa_edges.jpg,3.157348,0.483092,edges,brfr09,2022-06-13_11h02.21.185,ratings,2022.1.1,Win32,60.0060006
2.940074906,2.3096,2.93071161,3.2937,0,349,349,456,1,720_483c541c48959a597fcf44320941afaf8b7695105f90d65b5f6b30f2_orig.jpg,2.158732,-0.2539684,original,brfr09,2022-06-13_11h02.21.185,ratings,2022.1.1,Win32,60.0060006
-1.048689139,4.8762,0.917602996,6.0869,0,350,350,171,1,365_45a719cabbc9aa308c4fcb30d529489c6966ac4073874af84f665c61_blur.jpg,2.507936,-1.968252,blurring,brfr09,2022-06-13_11h02.21.185,ratings,2022.1.1,Win32,60.0060006
-1.06741573,4.9596,1.029962547,5.624,0,351,351,294,1,449_9c1e990a3480e5b51430fe76b0188e69ba2468fd6a866b88b2d0dd75_orig.jpg,0.095238,0.03174604,original,brfr09,2022-06-13_11h02.21.185,ratings,2022.1.1,Win32,60.0060006
-0.140449438,4.6538,-0.028089888,6.3238,0,352,352,398,1,683_a004ad18331da968da5debdd15e1447dd7748750af0bc6c57b844200_edges.jpg,-2.91956,2.466524,edges,brfr09,2022-06-13_11h02.21.185,ratings,2022.1.1,Win32,60.0060006
-1.020599251,3.1884,0.992509363,5.3827,0,353,353,157,1,358_157f8ac929713531a15b1ecf115e7b659cb90e83d675251e368d165f_bw.jpg,-3.777776,-0.571428,blackwhite,brfr09,2022-06-13_11h02.21.185,ratings,2022.1.1,Win32,60.0060006
-1.095505618,5.9105,0.898876404,8.9803,0,354,354,207,1,381_5935a9f9796adce2f1539af6c75bcdc0c80d847a2ce9b77cf59b7672_blur.jpg,-1.327432,-0.442476,blurring,brfr09,2022-06-13_11h02.21.185,ratings,2022.1.1,Win32,60.0060006
-1.039325843,2.9392,1.029962547,4.4111,0,355,355,272,1,434_ba36d91204d7e578001f6a545d7501e65d209554def5a3c8b7583825_edges.jpg,-3.523808,1.428572,edges,brfr09,2022-06-13_11h02.21.185,ratings,2022.1.1,Win32,60.0060006
-2.050561798,2.2994,0.889513109,3.5232,0,356,356,429,1,694_7a14b8ab7c564dcb0f628c4de7f6cb54e4c5f6601f774bf167641c37_blur.jpg,1.819588,0.116144,blurring,brfr09,2022-06-13_11h02.21.185,ratings,2022.1.1,Win32,60.0060006
-1.966292135,3.8647,0.992509363,6.7528,0,357,357,383,1,640_0ddb4981a5f5842ed5b4f7ef941be53779189df5e718b1fc5475ad80_circblurext.jpg,2.571428,-1.873016,circularblurringext,brfr09,2022-06-13_11h02.21.185,ratings,2022.1.1,Win32,60.0060006
-0.093632959,3.0203,0.898876404,7.514,0,358,358,259,1,416_8a1f874e0057d67a4e6955865ba88b2d8ce2c8b4469589307687a723_bw.jpg,-1.753336,3.088264,blackwhite,brfr09,2022-06-13_11h02.21.185,ratings,2022.1.1,Win32,60.0060006
2.06928839,2.6591,2.06928839,7.4333,0,359,359,440,1,700_59cb565f134f1afd066d7b6d936c6511b7cb76de0e9cbb5ce15124ad_edges.jpg,0.0,0.0,edges,brfr09,2022-06-13_11h02.21.185,ratings,2022.1.1,Win32,60.0060006
-2.162921348,6.0675,1.039325843,7.6294,0,360,360,484,1,759_95e1c46ed9a337414d5c8eada8fa8b9632e18751f5ce6ed587806e91_circblurint.jpg,2.126984,0.0,circularblurringint,brfr09,2022-06-13_11h02.21.185,ratings,2022.1.1,Win32,60.0060006
2.93071161,1.8811,2.949438202,2.837,0,361,361,108,1,293_3dfdfafc0c6a54b2da7453750ac281f7718c0b3337b0a74c4563d6bd_orig.jpg,-2.574524,2.632596,original,brfr09,2022-06-13_11h02.21.185,ratings,2022.1.1,Win32,60.0060006
-2.050561798,1.6942,1.001872659,2.5824,0,362,362,543,1,1005_b980c0747d20935bc63cc27a9e05ce2ff5bae98f859872ec48edd7f5_blur.jpg,3.428572,-0.476192,blurring,brfr09,2022-06-13_11h02.21.185,ratings,2022.1.1,Win32,60.0060006
-2.106741573,2.4643,0.95505618,3.6324,0,363,363,521,1,860_05c4e22518a30d3d2add458a8fc6488f87b9b02dd8e385ded939f025_circblurext.jpg,1.955092,0.3097172,circularblurringext,brfr09,2022-06-13_11h02.21.185,ratings,2022.1.1,Win32,60.0060006
-2.996254682,4.8542,1.020599251,7.2465,0,364,364,244,1,411_adfd0d5782129756321ff671d0cfb712528504c66c863df11aabd1e7_circblurint.jpg,-3.392332,-1.369576,circularblurringint,brfr09,2022-06-13_11h02.21.185,ratings,2022.1.1,Win32,60.0060006
2.003745318,2.0625,-3.904494382,3.7822,0,365,365,32,1,60_ad52063167538de24f94d7dfd04808cb94cf8f426c40871d2f126505_edges.jpg,2.158732,0.0,edges,brfr09,2022-06-13_11h02.21.185,ratings,2022.1.1,Win32,60.0060006
-1.956928839,3.7172,1.048689139,8.4288,0,366,366,94,1,258_d26019382777d2159a974a7654923e71598135ce2cd710cea1f92865_circblurint.jpg,3.497684,-0.61104,circularblurringint,brfr09,2022-06-13_11h02.21.185,ratings,2022.1.1,Win32,60.0060006
-1.994382022,4.4005,1.919475655,7.4985,0,367,367,180,1,369_98db62a1bdabfd1bc551180da6658005b461585cd21614633cf76470_orig.jpg,2.190476,-0.03174604,original,brfr09,2022-06-13_11h02.21.185,ratings,2022.1.1,Win32,60.0060006
-1.001872659,2.5048,0.983146067,4.1606,0,368,368,331,1,482_a1cd28915c5044c018195ab0fff10dcc95e385246b045a7cd4463ff7_bw.jpg,-3.361852,-1.555612,blackwhite,brfr09,2022-06-13_11h02.21.185,ratings,2022.1.1,Win32,60.0060006
2.02247191,3.1262,-2.986891386,4.8228,0,369,369,102,1,284_cdcbd54fc995081ac95c8b2c37a19cebb341f61a8eb268cee1623492_orig.jpg,-1.015872,2.095236,original,brfr09,2022-06-13_11h02.21.185,ratings,2022.1.1,Win32,60.0060006
2.958801498,2.1607,-3.127340824,3.3389,0,370,370,505,1,855_66d893451dfd1e7615132071c6c8a82b02dc2b37781cd89400883b26_bw.jpg,2.69484,0.2143624,blackwhite,brfr09,2022-06-13_11h02.21.185,ratings,2022.1.1,Win32,60.0060006
0.018726592,1.8869,0.046816479,3.2227,0,371,371,326,1,468_8b69b13120daebadd8a4a3166e1419f2404395cba231307a4efa9fde_edges.jpg,2.031744,0.2539684,edges,brfr09,2022-06-13_11h02.21.185,ratings,2022.1.1,Win32,60.0060006
-2.93071161,2.1752,0.9082397,5.4952,0,372,372,88,1,243_beddb302dcb21071d88c8d2cab07002050d36b3001ef28f89389fa56_circblurint.jpg,-0.3450656,-0.2070392,circularblurringint,brfr09,2022-06-13_11h02.21.185,ratings,2022.1.1,Win32,60.0060006
-0.065543071,3.0143,1.011235955,4.9103,0,373,373,421,1,692_e3e3bf88684fbbcdb9849a4147f9e2fcd39b0f083554a829aca4e9fa_bw.jpg,-0.44522,3.135888,blackwhite,brfr09,2022-06-13_11h02.21.185,ratings,2022.1.1,Win32,60.0060006
-2.003745318,1.9371,1.076779026,2.7985,0,374,374,599,1,1239_cee00457f4cfb76a407b12fd5ad714d440a4614c1e5467ee16caf618_circblurext.jpg,-0.03174604,0.190476,circularblurringext,brfr09,2022-06-13_11h02.21.185,ratings,2022.1.1,Win32,60.0060006
1.86329588,2.8153,1.947565543,4.2232,0,375,375,446,1,709_69c01dcde028a2a1a913f1a2a5026ae1748484f75c89217a040c6791_edges.jpg,1.432444,-0.01935732,edges,brfr09,2022-06-13_11h02.21.185,ratings,2022.1.1,Win32,60.0060006
-1.048689139,2.3881,1.039325843,3.588,0,376,376,246,1,414_0187bdf7007109b487865b6a9d388997a6817acf052a6a7cdd5b39d9_orig.jpg,-2.786708,-1.133056,original,brfr09,2022-06-13_11h02.21.185,ratings,2022.1.1,Win32,60.0060006
2.940074906,1.9471,2.855805243,2.7549,0,377,377,228,1,407_578d31d32e806706dde2563213f130b90e621abfed0e47ecabd85d27_orig.jpg,3.5873,-0.444444,original,brfr09,2022-06-13_11h02.21.185,ratings,2022.1.1,Win32,60.0060006
-2.041198502,1.6704,1.048689139,43.6527,0,378,378,225,1,403_57ac47f43882fc031a6067b1a388c0b2cbe8708dcbd2ff1019932eff_blur.jpg,-3.333332,-1.396824,blurring,brfr09,2022-06-13_11h02.21.185,ratings,2022.1.1,Win32,60.0060006
-2.02247191,3.1498,0.842696629,4.1757,0,379,379,196,1,379_eeaa6d9bf5a4ef205dc48bc505cf3a7f24ea86e99af9b371e03602a7_circblurint.jpg,-0.3926308,2.88936,circularblurringint,brfr09,2022-06-13_11h02.21.185,ratings,2022.1.1,Win32,60.0060006
-1.947565543,1.4217,0.992509363,2.2937,0,380,380,295,1,449_9c1e990a3480e5b51430fe76b0188e69ba2468fd6a866b88b2d0dd75_bw.jpg,0.095238,0.03174604,blackwhite,brfr09,2022-06-13_11h02.21.185,ratings,2022.1.1,Win32,60.0060006
-2.06928839,3.6375,0.983146067,4.8552,0,381,381,332,1,482_a1cd28915c5044c018195ab0fff10dcc95e385246b045a7cd4463ff7_edges.jpg,-3.361852,-1.555612,edges,brfr09,2022-06-13_11h02.21.185,ratings,2022.1.1,Win32,60.0060006
0.964419476,3.1477,1.029962547,7.0915,0,382,382,313,1,459_46e25de472bb056cb470716d30937415f7344bfc4354d6eb710d8c9f_bw.jpg,0.03174604,0.0,blackwhite,brfr09,2022-06-13_11h02.21.185,ratings,2022.1.1,Win32,60.0060006
-1.938202247,2.9036,0.945692884,3.7635,0,383,383,340,1,492_a1a4d288d3bc486c83c3b6a835c42891989f5ba781633932298a7676_circblurint.jpg,3.406892,-0.44522,circularblurringint,brfr09,2022-06-13_11h02.21.185,ratings,2022.1.1,Win32,60.0060006
2.846441948,2.1042,2.968164794,3.0135,0,384,384,374,1,620_9674719009d75dcfeaed7f15932c43e1fd1af5e25d47b8aadd61efe2_edges.jpg,-0.561364,1.142084,edges,brfr09,2022-06-13_11h02.21.185,ratings,2022.1.1,Win32,60.0060006
3.08988764,1.7546,-3.951310861,3.1547,0,385,385,265,1,431_ab5a1dbbe9292ac7f74e276cdabcd372e2c1f852ff34bf7cc6646ef8_bw.jpg,3.102584,0.354334,blackwhite,brfr09,2022-06-13_11h02.21.185,ratings,2022.1.1,Win32,60.0060006
-0.028089888,3.4099,-0.037453184,4.3382,0,386,386,314,1,459_46e25de472bb056cb470716d30937415f7344bfc4354d6eb710d8c9f_edges.jpg,0.03174604,0.0,edges,brfr09,2022-06-13_11h02.21.185,ratings,2022.1.1,Win32,60.0060006
-2.097378277,2.3266,1.020599251,5.7041,0,387,387,267,1,431_ab5a1dbbe9292ac7f74e276cdabcd372e2c1f852ff34bf7cc6646ef8_blur.jpg,3.102584,0.354334,blurring,brfr09,2022-06-13_11h02.21.185,ratings,2022.1.1,Win32,60.0060006
-0.093632959,15.8702,-0.95505618,14.3399,0,388,388,55,1,137_0e6a04243c0a42a5e2528a2d181255ca2a4b7bd6e7978c5c2059c69f_bw.jpg,-0.95238,2.095236,blackwhite,brfr09,2022-06-13_11h02.21.185,ratings,2022.1.1,Win32,60.0060006
-2.106741573,5.6535,1.029962547,8.8393,0,389,389,492,1,824_b1d91cc824ce0d3d383d3147da88d3d6dbaf6be918bab79e3ec8f501_orig.jpg,-3.645176,-1.432784,original,brfr09,2022-06-13_11h02.21.185,ratings,2022.1.1,Win32,60.0060006
-2.846441948,2.0719,1.86329588,3.6401,0,390,390,135,1,349_8809a67686d34844c915d7700e2ea72ad1c02ae232ae0d3cc0e458d4_blur.jpg,-3.619048,-0.2857144,blurring,brfr09,2022-06-13_11h02.21.185,ratings,2022.1.1,Win32,60.0060006
2.93071161,1.8777,3.061797753,2.7656,0,391,391,31,1,60_ad52063167538de24f94d7dfd04808cb94cf8f426c40871d2f126505_bw.jpg,2.158732,0.0,blackwhite,brfr09,2022-06-13_11h02.21.185,ratings,2022.1.1,Win32,60.0060006
-2.059925094,1.5575,1.095505618,2.4454,0,392,392,75,1,236_f645730e1eb06155418c9a571329cc7fa320654fcaaedf1048b5cc11_blur.jpg,2.253968,0.0,blurring,brfr09,2022-06-13_11h02.21.185,ratings,2022.1.1,Win32,60.0060006
3.033707865,4.7998,1.985018727,6.6576,0,393,393,486,1,818_877aae033c31e3bbca4486321a5307f87cf53c576c546462d3daf194_orig.jpg,-1.277584,0.619436,original,brfr09,2022-06-13_11h02.21.185,ratings,2022.1.1,Win32,60.0060006
-0.018726592,4.1434,0.880149813,6.022,0,394,394,536,1,986_a77edb21e78bc3a6aa7406517824596b3496ad6c657b6befb84cf370_edges.jpg,-3.906316,-0.60496,edges,brfr09,2022-06-13_11h02.21.185,ratings,2022.1.1,Win32,60.0060006
0.973782772,4.3884,1.86329588,6.5881,0,395,395,368,1,616_05a637f5281666f53d4e2ef69351485fc21d629b37ee2006b2076eb6_edges.jpg,-2.380952,-0.832364,edges,brfr09,2022-06-13_11h02.21.185,ratings,2022.1.1,Win32,60.0060006
-2.013108614,1.8316,0.823970037,2.7912,0,396,396,297,1,449_9c1e990a3480e5b51430fe76b0188e69ba2468fd6a866b88b2d0dd75_blur.jpg,0.095238,0.03174604,blurring,brfr09,2022-06-13_11h02.21.185,ratings,2022.1.1,Win32,60.0060006
-3.061797753,5.6314,1.161048689,10.3261,0,397,397,495,1,824_b1d91cc824ce0d3d383d3147da88d3d6dbaf6be918bab79e3ec8f501_blur.jpg,-3.645176,-1.432784,blurring,brfr09,2022-06-13_11h02.21.185,ratings,2022.1.1,Win32,60.0060006
3.857677903,1.9908,-3.895131086,3.7875,0,398,398,391,1,663_aaf52107fe3a86392530d88b34e86f9d2b6820714cad98d1e3c2cb67_bw.jpg,2.58766,0.0918696,blackwhite,brfr09,2022-06-13_11h02.21.185,ratings,2022.1.1,Win32,60.0060006
-0.028089888,3.8205,-1.956928839,7.3289,0,399,399,216,1,396_208259ea431d47bb7f3946213eb099834eb119756ce304ad473d4d9f_orig.jpg,2.857144,-0.3809524,original,brfr09,2022-06-13_11h02.21.185,ratings,2022.1.1,Win32,60.0060006
0.046816479,1.9067,0.992509363,9.9786,0,400,400,510,1,858_2f6539ee36aba48c38dc716d4f7c3ae93367d6ddf23ab41745d4172c_orig.jpg,0.0623832,0.176752,original,brfr09,2022-06-13_11h02.21.185,ratings,2022.1.1,Win32,60.0060006
-2.144194757,1.8457,0.917602996,2.6778,0,401,401,227,1,403_57ac47f43882fc031a6067b1a388c0b2cbe8708dcbd2ff1019932eff_circblurext.jpg,-3.333332,-1.396824,circularblurringext,brfr09,2022-06-13_11h02.21.185,ratings,2022.1.1,Win32,60.0060006
0.018726592,4.972,0.889513109,8.708,0,402,402,362,1,508_a7a9519cdc7aad6844030f4e6cd96cffd1b9c49b71e20ea52789bda2_edges.jpg,-3.000388,-1.29694,edges,brfr09,2022-06-13_11h02.21.185,ratings,2022.1.1,Win32,60.0060006
2.940074906,2.4064,2.003745318,4.4701,0,403,403,74,1,236_f645730e1eb06155418c9a571329cc7fa320654fcaaedf1048b5cc11_edges.jpg,2.253968,0.0,edges,brfr09,2022-06-13_11h02.21.185,ratings,2022.1.1,Win32,60.0060006
-2.050561798,2.2708,1.058052434,3.3039,0,404,404,119,1,332_4d584229bdae2e1782f77f0e953e528f13c3dfa79b4b94736c0310fa_circblurext.jpg,3.157348,0.483092,circularblurringext,brfr09,2022-06-13_11h02.21.185,ratings,2022.1.1,Win32,60.0060006
-2.237827715,1.2046,0.852059925,2.0702,0,405,405,69,1,172_c641c6c56ca6b594b773084e1363c852abdb65f988d7ff802ee503f2_blur.jpg,0.379572,0.01725328,blurring,brfr09,2022-06-13_11h02.21.185,ratings,2022.1.1,Win32,60.0060006
-2.06928839,1.2272,1.020599251,2.1551,0,406,406,165,1,361_b5541309527dc3c2422f45a95ebb0ed32005e6fe10d0489a1ff1fbdc_blur.jpg,-3.987612,-0.2516452,blurring,brfr09,2022-06-13_11h02.21.185,ratings,2022.1.1,Win32,60.0060006
-0.074906367,2.8212,0.95505618,5.1472,0,407,407,235,1,410_9633c4ff6e8888fcfca59a60ca86e9606d3e0736500a254101bdf295_bw.jpg,-0.3677892,2.981028,blackwhite,brfr09,2022-06-13_11h02.21.185,ratings,2022.1.1,Win32,60.0060006
-0.046816479,2.5564,0.945692884,3.7646,0,408,408,432,1,694_f80f33613b268beffd6c044537cf3b44a84683d6e889bc37b8e9c34b_orig.jpg,-0.3785616,3.34728,original,brfr09,2022-06-13_11h02.21.185,ratings,2022.1.1,Win32,60.0060006
0.9082397,6.3859,-1.001872659,9.9454,0,409,409,178,1,368_6507b94d7d0199f14efd3706db30c9c44b96085f84e9cc7792e3e0ae_circblurint.jpg,1.959544,0.400336,circularblurringint,brfr09,2022-06-13_11h02.21.185,ratings,2022.1.1,Win32,60.0060006
-2.02247191,1.5544,0.983146067,2.4617,0,410,410,159,1,358_157f8ac929713531a15b1ecf115e7b659cb90e83d675251e368d165f_blur.jpg,-3.777776,-0.571428,blurring,brfr09,2022-06-13_11h02.21.185,ratings,2022.1.1,Win32,60.0060006
-3.014981273,2.3399,2.003745318,4.2696,0,411,411,167,1,361_b5541309527dc3c2422f45a95ebb0ed32005e6fe10d0489a1ff1fbdc_circblurext.jpg,-3.987612,-0.2516452,circularblurringext,brfr09,2022-06-13_11h02.21.185,ratings,2022.1.1,Win32,60.0060006
1.020599251,6.7665,-0.983146067,9.3529,0,412,412,348,1,498_305b74cdc4784d9d25e72724302e5402def70177ea31ae7e25fab66b_orig.jpg,3.04762,-0.444444,original,brfr09,2022-06-13_11h02.21.185,ratings,2022.1.1,Win32,60.0060006
-2.088014981,2.2559,1.076779026,3.5278,0,413,413,461,1,720_483c541c48959a597fcf44320941afaf8b7695105f90d65b5f6b30f2_circblurext.jpg,2.158732,-0.2539684,circularblurringext,brfr09,2022-06-13_11h02.21.185,ratings,2022.1.1,Win32,60.0060006
1.001872659,2.6734,-2.050561798,4.6494,0,414,414,283,1,440_dc6413e2b65369ee2587f4d85621742fe4ca87392d0a8ad2ea7d94e3_bw.jpg,-3.016216,1.69404,blackwhite,brfr09,2022-06-13_11h02.21.185,ratings,2022.1.1,Win32,60.0060006
-2.02247191,4.2096,1.891385768,5.9546,0,415,415,15,1,39_2fafccaa4dc69045a05845f59c6b3cd2edcf7e0e0c108b24e553afe0_blur.jpg,2.022756,0.463548,blurring,brfr09,2022-06-13_11h02.21.185,ratings,2022.1.1,Win32,60.0060006
2.940074906,1.8598,2.865168539,2.7792,0,416,416,518,1,860_05c4e22518a30d3d2add458a8fc6488f87b9b02dd8e385ded939f025_edges.jpg,1.955092,0.3097172,edges,brfr09,2022-06-13_11h02.21.185,ratings,2022.1.1,Win32,60.0060006
2.949438202,3.4055,2.949438202,6.9715,0,417,417,498,1,854_081a8409e4d6d10923b2dedcc16a3fca405fcd602e55a20d84cac69d_orig.jpg,3.088264,1.21538,original,brfr09,2022-06-13_11h02.21.185,ratings,2022.1.1,Win32,60.0060006
-2.200374532,10.1212,1.207865169,10.9788,0,418,418,202,1,380_34772591c787182a37724027eac6948ebc9d4064f6a601d23b923b8e_circblurint.jpg,2.222224,-0.063492,circularblurringint,brfr09,2022-06-13_11h02.21.185,ratings,2022.1.1,Win32,60.0060006
0.018726592,4.6869,0.95505618,5.9073,0,419,419,342,1,494_5c6c3b85a2734a43c24bfe337d42ffcc82b7347227804d01c784cef4_orig.jpg,0.03871468,0.0,original,brfr09,2022-06-13_11h02.21.185,ratings,2022.1.1,Win32,60.0060006
-2.106741573,2.7286,1.086142322,3.6805,0,420,420,262,1,416_8a1f874e0057d67a4e6955865ba88b2d8ce2c8b4469589307687a723_circblurint.jpg,-1.753336,3.088264,circularblurringint,brfr09,2022-06-13_11h02.21.185,ratings,2022.1.1,Win32,60.0060006
-2.088014981,5.4471,0.9082397,4.5272,0,421,421,400,1,683_a004ad18331da968da5debdd15e1447dd7748750af0bc6c57b844200_circblurint.jpg,-2.91956,2.466524,circularblurringint,brfr09,2022-06-13_11h02.21.185,ratings,2022.1.1,Win32,60.0060006
-1.011235955,6.7971,1.039325843,7.9108,0,422,422,442,1,700_59cb565f134f1afd066d7b6d936c6511b7cb76de0e9cbb5ce15124ad_circblurint.jpg,0.0,0.0,circularblurringint,brfr09,2022-06-13_11h02.21.185,ratings,2022.1.1,Win32,60.0060006
-1.928838951,6.7267,1.132958801,8.0407,0,423,423,491,1,818_877aae033c31e3bbca4486321a5307f87cf53c576c546462d3daf194_circblurext.jpg,-1.277584,0.619436,circularblurringext,brfr09,2022-06-13_11h02.21.185,ratings,2022.1.1,Win32,60.0060006
-0.823970037,5.3539,1.076779026,6.6868,0,424,424,58,1,137_0e6a04243c0a42a5e2528a2d181255ca2a4b7bd6e7978c5c2059c69f_circblurint.jpg,-0.95238,2.095236,circularblurringint,brfr09,2022-06-13_11h02.21.185,ratings,2022.1.1,Win32,60.0060006
0.9082397,2.2202,-0.926966292,3.8888,0,425,425,252,1,416_5eb54976bb41ce2a6d129ef985f792e716f010fb9b69b15f50f5d2db_orig.jpg,-2.58766,2.602972,original,brfr09,2022-06-13_11h02.21.185,ratings,2022.1.1,Win32,60.0060006
-0.037453184,18.0484,0.823970037,15.9184,0,426,426,373,1,620_9674719009d75dcfeaed7f15932c43e1fd1af5e25d47b8aadd61efe2_bw.jpg,-0.561364,1.142084,blackwhite,brfr09,2022-06-13_11h02.21.185,ratings,2022.1.1,Win32,60.0060006
-2.125468165,3.9485,1.06741573,5.8305,0,427,427,197,1,379_eeaa6d9bf5a4ef205dc48bc505cf3a7f24ea86e99af9b371e03602a7_circblurext.jpg,-0.3926308,2.88936,circularblurringext,brfr09,2022-06-13_11h02.21.185,ratings,2022.1.1,Win32,60.0060006
-2.041198502,2.7389,0.9082397,3.604,0,428,428,382,1,640_0ddb4981a5f5842ed5b4f7ef941be53779189df5e718b1fc5475ad80_circblurint.jpg,2.571428,-1.873016,circularblurringint,brfr09,2022-06-13_11h02.21.185,ratings,2022.1.1,Win32,60.0060006
-2.106741573,2.3371,0.983146067,3.9122,0,429,429,279,1,440_9bf7e8609729bf888835168834da6c3ff30b75d0d4f36e2ee6918bcc_blur.jpg,-2.284164,2.710028,blurring,brfr09,2022-06-13_11h02.21.185,ratings,2022.1.1,Win32,60.0060006
-2.003745318,1.5041,1.039325843,2.4207,0,430,430,51,1,112_b6a4ce721c2e42943d7d8b168751d74cd2f372b1cd4fed5a4404faec_blur.jpg,2.107036,0.505688,blurring,brfr09,2022-06-13_11h02.21.185,ratings,2022.1.1,Win32,60.0060006
0.833333333,4.6767,-1.11423221,6.3542,0,431,431,568,1,1037_e2eb929a6de79a63ce6cfe5321fcb74a203b134e4094932d90b01d99_circblurint.jpg,2.651956,0.0,circularblurringint,brfr09,2022-06-13_11h02.21.185,ratings,2022.1.1,Win32,60.0060006
-2.003745318,1.8914,1.058052434,2.9154,0,432,432,443,1,700_59cb565f134f1afd066d7b6d936c6511b7cb76de0e9cbb5ce15124ad_circblurext.jpg,0.0,0.0,circularblurringext,brfr09,2022-06-13_11h02.21.185,ratings,2022.1.1,Win32,60.0060006
-2.116104869,1.2222,1.048689139,2.1982,0,433,433,111,1,293_3dfdfafc0c6a54b2da7453750ac281f7718c0b3337b0a74c4563d6bd_blur.jpg,-2.574524,2.632596,blurring,brfr09,2022-06-13_11h02.21.185,ratings,2022.1.1,Win32,60.0060006
-2.921348315,2.8264,1.020599251,7.2498,0,434,434,127,1,349_18d92ef5c21ca70a3dd237aad251594e1688bbe01d8cff37b89c46b8_bw.jpg,-2.74874,-1.258228,blackwhite,brfr09,2022-06-13_11h02.21.185,ratings,2022.1.1,Win32,60.0060006
1.132958801,4.6596,-1.048689139,7.2868,0,435,435,96,1,267_792043debad81ce271cec5b3c3bd9d264efc13f362bec9c7a3f72fe7_orig.jpg,1.980616,0.2107036,original,brfr09,2022-06-13_11h02.21.185,ratings,2022.1.1,Win32,60.0060006
-1.039325843,4.9096,0.870786517,5.7105,0,436,436,16,1,39_2fafccaa4dc69045a05845f59c6b3cd2edcf7e0e0c108b24e553afe0_circblurint.jpg,2.022756,0.463548,circularblurringint,brfr09,2022-06-13_11h02.21.185,ratings,2022.1.1,Win32,60.0060006
1.994382022,3.4576,-2.958801498,5.3775,0,437,437,337,1,492_a1a4d288d3bc486c83c3b6a835c42891989f5ba781633932298a7676_bw.jpg,3.406892,-0.44522,blackwhite,brfr09,2022-06-13_11h02.21.185,ratings,2022.1.1,Win32,60.0060006
-2.162921348,2.7034,1.029962547,4.2067,0,438,438,329,1,468_8b69b13120daebadd8a4a3166e1419f2404395cba231307a4efa9fde_circblurext.jpg,2.031744,0.2539684,circularblurringext,brfr09,2022-06-13_11h02.21.185,ratings,2022.1.1,Win32,60.0060006
-2.968164794,2.8633,1.001872659,4.1453,0,439,439,503,1,854_081a8409e4d6d10923b2dedcc16a3fca405fcd602e55a20d84cac69d_circblurext.jpg,3.088264,1.21538,circularblurringext,brfr09,2022-06-13_11h02.21.185,ratings,2022.1.1,Win32,60.0060006
0.037453184,8.1142,-2.031835206,9.8746,0,440,440,439,1,700_59cb565f134f1afd066d7b6d936c6511b7cb76de0e9cbb5ce15124ad_bw.jpg,0.0,0.0,blackwhite,brfr09,2022-06-13_11h02.21.185,ratings,2022.1.1,Win32,60.0060006
0.009363296,3.3039,-1.029962547,5.571,0,441,441,530,1,915_dc9fd40a3b5d64a180833a7bac86e7556c24f681f473fe255e41f936_edges.jpg,-3.09294,-0.918696,edges,brfr09,2022-06-13_11h02.21.185,ratings,2022.1.1,Win32,60.0060006
-0.992509363,2.0216,1.104868914,2.9973,0,442,442,112,1,293_3dfdfafc0c6a54b2da7453750ac281f7718c0b3337b0a74c4563d6bd_circblurint.jpg,-2.574524,2.632596,circularblurringint,brfr09,2022-06-13_11h02.21.185,ratings,2022.1.1,Win32,60.0060006
1.020599251,4.147,-1.104868914,6.7971,0,443,443,438,1,700_59cb565f134f1afd066d7b6d936c6511b7cb76de0e9cbb5ce15124ad_orig.jpg,0.0,0.0,original,brfr09,2022-06-13_11h02.21.185,ratings,2022.1.1,Win32,60.0060006
0.009363296,2.961,0.009363296,4.1703,0,444,444,158,1,358_157f8ac929713531a15b1ecf115e7b659cb90e83d675251e368d165f_edges.jpg,-3.777776,-0.571428,edges,brfr09,2022-06-13_11h02.21.185,ratings,2022.1.1,Win32,60.0060006
3.005617978,2.5725,-3.024344569,3.9263,0,445,445,408,1,687_e3b018945792a574962235c88c553b7c318c75eec2596478e8a7b877_orig.jpg,3.63918,-0.42586,original,brfr09,2022-06-13_11h02.21.185,ratings,2022.1.1,Win32,60.0060006
-0.084269663,3.9905,1.06741573,11.133,0,446,446,271,1,434_ba36d91204d7e578001f6a545d7501e65d209554def5a3c8b7583825_bw.jpg,-3.523808,1.428572,blackwhite,brfr09,2022-06-13_11h02.21.185,ratings,2022.1.1,Win32,60.0060006
-1.086142322,3.9807,0.852059925,4.8386,0,447,447,490,1,818_877aae033c31e3bbca4486321a5307f87cf53c576c546462d3daf194_circblurint.jpg,-1.277584,0.619436,circularblurringint,brfr09,2022-06-13_11h02.21.185,ratings,2022.1.1,Win32,60.0060006
-1.235955056,1.8643,0.983146067,2.704,0,448,448,385,1,646_577760d718dab44c6f04d77408c5644a120065ce07a9503957d0850a_bw.jpg,-2.690668,2.61324,blackwhite,brfr09,2022-06-13_11h02.21.185,ratings,2022.1.1,Win32,60.0060006
-2.93071161,1.6037,1.020599251,3.27,0,449,449,45,1,92_5d20d78a8e57e628c6930676473a4e0a485e715841efd6286c660020_blur.jpg,2.126984,0.0,blurring,brfr09,2022-06-13_11h02.21.185,ratings,2022.1.1,Win32,60.0060006
