valence_slider.response,valence_slider.rt,arousal_slider.response,arousal_slider.rt,trials.thisRepN,trials.thisTrialN,trials.thisN,trials.thisIndex,trials.ran,img_name,vm,am,manipulation,participant,date,expName,psychopyVersion,OS,frameRate
-3.504213055,22.564,-0.339419476,42.5424,0,0,0,415,1,692_7d7eaf20e6de8956f0fca7500ace97a8599aa8b605a7d690cdb28724_bw.jpg,-2.063492,-1.26984,blackwhite,ervi22,2022-06-03_15h54.16.415,ratings,2022.1.1,Win32,60.12144532
-0.554775567,15.9595,0.625000286,40.5593,0,1,1,370,1,616_05a637f5281666f53d4e2ef69351485fc21d629b37ee2006b2076eb6_circblurint.jpg,-2.380952,-0.832364,circularblurringint,ervi22,2022-06-03_15h54.16.415,ratings,2022.1.1,Win32,60.12144532
0.615636418,12.0267,-1.715823684,24.8611,0,2,2,540,1,1005_b980c0747d20935bc63cc27a9e05ce2ff5bae98f859872ec48edd7f5_orig.jpg,3.428572,-0.476192,original,ervi22,2022-06-03_15h54.16.415,ratings,2022.1.1,Win32,60.12144532
-3.569756554,12.6324,-0.545411699,23.2096,0,3,3,570,1,1039_d64da8480fc6e94dcdc513237d600570ae0b9fe48795ac6a8b2d29a7_orig.jpg,-2.507936,-1.142856,original,ervi22,2022-06-03_15h54.16.415,ratings,2022.1.1,Win32,60.12144532
1.196161906,15.188,1.551966006,20.8815,0,4,4,176,1,368_6507b94d7d0199f14efd3706db30c9c44b96085f84e9cc7792e3e0ae_edges.jpg,1.959544,0.400336,edges,ervi22,2022-06-03_15h54.16.415,ratings,2022.1.1,Win32,60.12144532
-0.835674443,8.6348,-0.526685393,14.544,0,5,5,347,1,494_5c6c3b85a2734a43c24bfe337d42ffcc82b7347227804d01c784cef4_circblurext.jpg,0.03871468,0.0,circularblurringext,ervi22,2022-06-03_15h54.16.415,ratings,2022.1.1,Win32,60.12144532
0.540731194,8.8413,0.849718815,11.1426,0,6,6,472,1,741_2b218fb015e3da83db73cacdb52e61e0c2534c1fe255bb1c5c74d47f_circblurint.jpg,3.140096,0.448584,circularblurringint,ervi22,2022-06-03_15h54.16.415,ratings,2022.1.1,Win32,60.12144532
-1.743913858,16.0851,-2.06226606,10.1997,0,7,7,225,1,403_57ac47f43882fc031a6067b1a388c0b2cbe8708dcbd2ff1019932eff_blur.jpg,-3.333332,-1.396824,blurring,ervi22,2022-06-03_15h54.16.415,ratings,2022.1.1,Win32,60.12144532
-2.801965864,5.5947,-2.464887355,21.3871,0,8,8,22,1,48_2cc936b2483ab2944c9158e163342b874ef6c1492fd8fca08c0e096e_circblurint.jpg,-1.264224,-0.779604,circularblurringint,ervi22,2022-06-03_15h54.16.415,ratings,2022.1.1,Win32,60.12144532
-1.949906081,31.2386,1.308521171,11.1968,0,9,9,46,1,92_5d20d78a8e57e628c6930676473a4e0a485e715841efd6286c660020_circblurint.jpg,2.126984,0.0,circularblurringint,ervi22,2022-06-03_15h54.16.415,ratings,2022.1.1,Win32,60.12144532
-3.064138434,5.0145,-2.361891243,7.8017,0,10,10,494,1,824_b1d91cc824ce0d3d383d3147da88d3d6dbaf6be918bab79e3ec8f501_edges.jpg,-3.645176,-1.432784,edges,ervi22,2022-06-03_15h54.16.415,ratings,2022.1.1,Win32,60.12144532
-0.648408525,8.9867,-1.31320239,10.7145,0,11,11,86,1,243_beddb302dcb21071d88c8d2cab07002050d36b3001ef28f89389fa56_edges.jpg,-0.3450656,-0.2070392,edges,ervi22,2022-06-03_15h54.16.415,ratings,2022.1.1,Win32,60.12144532
-2.605336793,4.4306,-2.399344569,7.1569,0,12,12,88,1,243_beddb302dcb21071d88c8d2cab07002050d36b3001ef28f89389fa56_circblurint.jpg,-0.3450656,-0.2070392,circularblurringint,ervi22,2022-06-03_15h54.16.415,ratings,2022.1.1,Win32,60.12144532
-3.054775281,2.5033,-0.517321526,15.7877,0,13,13,244,1,411_adfd0d5782129756321ff671d0cfb712528504c66c863df11aabd1e7_circblurint.jpg,-3.392332,-1.369576,circularblurringint,ervi22,2022-06-03_15h54.16.415,ratings,2022.1.1,Win32,60.12144532
1.224250651,7.7201,1.467696915,15.9848,0,14,14,508,1,855_66d893451dfd1e7615132071c6c8a82b02dc2b37781cd89400883b26_circblurint.jpg,2.69484,0.2143624,circularblurringint,ervi22,2022-06-03_15h54.16.415,ratings,2022.1.1,Win32,60.12144532
-2.83941919,11.476,-2.923688996,16.3164,0,15,15,387,1,646_577760d718dab44c6f04d77408c5644a120065ce07a9503957d0850a_blur.jpg,-2.690668,2.61324,blurring,ervi22,2022-06-03_15h54.16.415,ratings,2022.1.1,Win32,60.12144532
0.690543071,4.9827,0.990168254,6.8264,0,16,16,267,1,431_ab5a1dbbe9292ac7f74e276cdabcd372e2c1f852ff34bf7cc6646ef8_blur.jpg,3.102584,0.354334,blurring,ervi22,2022-06-03_15h54.16.415,ratings,2022.1.1,Win32,60.12144532
0.615636418,9.1559,0.765449724,11.7591,0,17,17,91,1,258_d26019382777d2159a974a7654923e71598135ce2cd710cea1f92865_bw.jpg,3.497684,-0.61104,blackwhite,ervi22,2022-06-03_15h54.16.415,ratings,2022.1.1,Win32,60.12144532
-0.086610773,5.2099,-0.01170412,6.7108,0,18,18,278,1,440_9bf7e8609729bf888835168834da6c3ff30b75d0d4f36e2ee6918bcc_edges.jpg,-2.284164,2.710028,edges,ervi22,2022-06-03_15h54.16.415,ratings,2022.1.1,Win32,60.12144532
-2.90496269,6.144,1.898409097,14.1718,0,19,19,373,1,620_9674719009d75dcfeaed7f15932c43e1fd1af5e25d47b8aadd61efe2_bw.jpg,-0.561364,1.142084,blackwhite,ervi22,2022-06-03_15h54.16.415,ratings,2022.1.1,Win32,60.12144532
-2.577247334,7.9585,-2.727059925,10.8449,0,20,20,357,1,500_3b520c7f352afa1a9f8c07e56cc0588cdc04d25ff6e7b602b5e280cb_blur.jpg,-0.8328,3.11766,blurring,ervi22,2022-06-03_15h54.16.415,ratings,2022.1.1,Win32,60.12144532
-0.45177874,8.1392,0.905899162,12.4896,0,21,21,584,1,1225_59c67a821456f2cce3e5acf66d7f00076bd02caffc984c1eb0df794e_edges.jpg,-0.444444,3.809524,edges,ervi22,2022-06-03_15h54.16.415,ratings,2022.1.1,Win32,60.12144532
0.259832318,6.9546,1.411516568,8.3683,0,22,22,341,1,492_a1a4d288d3bc486c83c3b6a835c42891989f5ba781633932298a7676_circblurext.jpg,3.406892,-0.44522,circularblurringext,ervi22,2022-06-03_15h54.16.415,ratings,2022.1.1,Win32,60.12144532
1.495787088,6.4259,1.570693741,8.9054,0,23,23,60,1,156_08e8cf8f04630e9213e610580de73f51572d1d589878648700bae4dc_orig.jpg,2.222224,0.0,original,ervi22,2022-06-03_15h54.16.415,ratings,2022.1.1,Win32,60.12144532
-2.670880293,3.5702,1.327247477,9.8527,0,24,24,531,1,915_dc9fd40a3b5d64a180833a7bac86e7556c24f681f473fe255e41f936_blur.jpg,-3.09294,-0.918696,blurring,ervi22,2022-06-03_15h54.16.415,ratings,2022.1.1,Win32,60.12144532
0.484550848,10.1544,1.486423221,13.552,0,25,25,45,1,92_5d20d78a8e57e628c6930676473a4e0a485e715841efd6286c660020_blur.jpg,2.126984,0.0,blurring,ervi22,2022-06-03_15h54.16.415,ratings,2022.1.1,Win32,60.12144532
2.319757412,6.1741,2.516385768,8.5041,0,26,26,116,1,332_4d584229bdae2e1782f77f0e953e528f13c3dfa79b4b94736c0310fa_edges.jpg,3.157348,0.483092,edges,ervi22,2022-06-03_15h54.16.415,ratings,2022.1.1,Win32,60.12144532
1.739231924,3.8302,2.291667238,8.5187,0,27,27,264,1,431_ab5a1dbbe9292ac7f74e276cdabcd372e2c1f852ff34bf7cc6646ef8_orig.jpg,3.102584,0.354334,original,ervi22,2022-06-03_15h54.16.415,ratings,2022.1.1,Win32,60.12144532
2.769194471,8.7027,2.591292421,10.7826,0,28,28,119,1,332_4d584229bdae2e1782f77f0e953e528f13c3dfa79b4b94736c0310fa_circblurext.jpg,3.157348,0.483092,circularblurringext,ervi22,2022-06-03_15h54.16.415,ratings,2022.1.1,Win32,60.12144532
3.817884752,5.9262,3.499531835,10.0632,0,29,29,403,1,686_6745b57686ad5d1bd6cf3e7ed5bc0243a154f8939e88e30321dfcfdb_bw.jpg,-1.523808,3.650792,blackwhite,ervi22,2022-06-03_15h54.16.415,ratings,2022.1.1,Win32,60.12144532
-2.155899019,6.041,0.362827715,14.3678,0,30,30,597,1,1239_cee00457f4cfb76a407b12fd5ad714d440a4614c1e5467ee16caf618_blur.jpg,-0.03174604,0.190476,blurring,ervi22,2022-06-03_15h54.16.415,ratings,2022.1.1,Win32,60.12144532
-0.629680791,3.4028,-0.227060211,4.7667,0,31,31,217,1,396_208259ea431d47bb7f3946213eb099834eb119756ce304ad473d4d9f_bw.jpg,2.857144,-0.3809524,blackwhite,ervi22,2022-06-03_15h54.16.415,ratings,2022.1.1,Win32,60.12144532
1.626872659,3.9296,1.860955056,6.8895,0,32,32,38,1,82_43f4d5aec7c2e5bd495473f6708a0f2d47c9fe34e1fe9436646cb036_edges.jpg,2.022756,0.505688,edges,ervi22,2022-06-03_15h54.16.415,ratings,2022.1.1,Win32,60.12144532
2.169944106,3.8465,2.535112074,6.4759,0,33,33,202,1,380_34772591c787182a37724027eac6948ebc9d4064f6a601d23b923b8e_circblurint.jpg,2.222224,-0.063492,circularblurringint,ervi22,2022-06-03_15h54.16.415,ratings,2022.1.1,Win32,60.12144532
-2.230804958,4.3135,-2.736423078,7.6748,0,34,34,248,1,414_0187bdf7007109b487865b6a9d388997a6817acf052a6a7cdd5b39d9_edges.jpg,-2.786708,-1.133056,edges,ervi22,2022-06-03_15h54.16.415,ratings,2022.1.1,Win32,60.12144532
-3.363763616,2.2219,1.617510221,12.0975,0,35,35,133,1,349_8809a67686d34844c915d7700e2ea72ad1c02ae232ae0d3cc0e458d4_bw.jpg,-3.619048,-0.2857144,blackwhite,ervi22,2022-06-03_15h54.16.415,ratings,2022.1.1,Win32,60.12144532
-1.734550705,5.8401,1.486423221,7.8552,0,36,36,377,1,620_9674719009d75dcfeaed7f15932c43e1fd1af5e25d47b8aadd61efe2_circblurext.jpg,-0.561364,1.142084,circularblurringext,ervi22,2022-06-03_15h54.16.415,ratings,2022.1.1,Win32,60.12144532
-0.348781914,10.6719,-0.404962261,13.9459,0,37,37,14,1,39_2fafccaa4dc69045a05845f59c6b3cd2edcf7e0e0c108b24e553afe0_edges.jpg,2.022756,0.463548,edges,ervi22,2022-06-03_15h54.16.415,ratings,2022.1.1,Win32,60.12144532
1.420880436,4.3918,1.701779312,8.3183,0,38,38,269,1,431_ab5a1dbbe9292ac7f74e276cdabcd372e2c1f852ff34bf7cc6646ef8_circblurext.jpg,3.102584,0.354334,circularblurringext,ervi22,2022-06-03_15h54.16.415,ratings,2022.1.1,Win32,60.12144532
-3.429307116,3.0548,-2.268258284,11.1695,0,39,39,243,1,411_adfd0d5782129756321ff671d0cfb712528504c66c863df11aabd1e7_blur.jpg,-3.392332,-1.369576,blurring,ervi22,2022-06-03_15h54.16.415,ratings,2022.1.1,Win32,60.12144532
-0.367509649,13.7538,-0.414326128,15.3553,0,40,40,558,1,1022_cf035e583d41a856836f8b0ae314ecbe79dffd9e40ef6a08cc26028f_orig.jpg,-0.2516452,3.05846,original,ervi22,2022-06-03_15h54.16.415,ratings,2022.1.1,Win32,60.12144532
0.756085857,8.8372,1.317883609,12.3914,0,41,41,195,1,379_eeaa6d9bf5a4ef205dc48bc505cf3a7f24ea86e99af9b371e03602a7_blur.jpg,-0.3926308,2.88936,blurring,ervi22,2022-06-03_15h54.16.415,ratings,2022.1.1,Win32,60.12144532
2.301029677,4.4148,2.37593633,6.2578,0,42,42,35,1,60_ad52063167538de24f94d7dfd04808cb94cf8f426c40871d2f126505_circblurext.jpg,2.158732,0.0,circularblurringext,ervi22,2022-06-03_15h54.16.415,ratings,2022.1.1,Win32,60.12144532
-0.526685393,10.0827,1.065074906,11.5303,0,43,43,434,1,694_f80f33613b268beffd6c044537cf3b44a84683d6e889bc37b8e9c34b_edges.jpg,-0.3785616,3.34728,edges,ervi22,2022-06-03_15h54.16.415,ratings,2022.1.1,Win32,60.12144532
-2.464887355,6.3895,-2.35252809,9.3934,0,44,44,328,1,468_8b69b13120daebadd8a4a3166e1419f2404395cba231307a4efa9fde_circblurint.jpg,2.031744,0.2539684,circularblurringint,ervi22,2022-06-03_15h54.16.415,ratings,2022.1.1,Win32,60.12144532
-2.483614375,7.2597,-2.418070875,8.4685,0,45,45,573,1,1039_d64da8480fc6e94dcdc513237d600570ae0b9fe48795ac6a8b2d29a7_blur.jpg,-2.507936,-1.142856,blurring,ervi22,2022-06-03_15h54.16.415,ratings,2022.1.1,Win32,60.12144532
-2.183988478,6.3259,0.653090459,13.5559,0,46,46,212,1,394_8e3a0cb945144d53bd1ace04b6256237ed9dcbbd9cb83f8a4886b0e6_edges.jpg,-2.593884,2.651956,edges,ervi22,2022-06-03_15h54.16.415,ratings,2022.1.1,Win32,60.12144532
2.123127627,4.6313,2.404026503,6.4406,0,47,47,187,1,369_c99797771115d7627d4abe3415f814497288f91a7be1a04c17c776b9_bw.jpg,3.619824,-0.174216,blackwhite,ervi22,2022-06-03_15h54.16.415,ratings,2022.1.1,Win32,60.12144532
-1.687734225,5.5112,-0.461142608,17.9923,0,48,48,236,1,410_9633c4ff6e8888fcfca59a60ca86e9606d3e0736500a254101bdf295_edges.jpg,-0.3677892,2.981028,edges,ervi22,2022-06-03_15h54.16.415,ratings,2022.1.1,Win32,60.12144532
-0.208332476,8.6707,-0.227060211,9.8209,0,49,49,276,1,440_9bf7e8609729bf888835168834da6c3ff30b75d0d4f36e2ee6918bcc_orig.jpg,-2.284164,2.710028,original,ervi22,2022-06-03_15h54.16.415,ratings,2022.1.1,Win32,60.12144532
-1.762640164,3.0497,0.793539897,7.2048,0,50,50,143,1,353_44e285740cb41818482ac93fc5fbd72c18029444a1d7506c9fc053e7_circblurext.jpg,-3.232676,-0.87108,circularblurringext,ervi22,2022-06-03_15h54.16.415,ratings,2022.1.1,Win32,60.12144532
1.467696915,5.9324,1.336611344,7.1569,0,51,51,255,1,416_5eb54976bb41ce2a6d129ef985f792e716f010fb9b69b15f50f5d2db_blur.jpg,-2.58766,2.602972,blurring,ervi22,2022-06-03_15h54.16.415,ratings,2022.1.1,Win32,60.12144532
-0.386235955,3.0491,-0.395598394,4.7444,0,52,52,562,1,1022_cf035e583d41a856836f8b0ae314ecbe79dffd9e40ef6a08cc26028f_circblurint.jpg,-0.2516452,3.05846,circularblurringint,ervi22,2022-06-03_15h54.16.415,ratings,2022.1.1,Win32,60.12144532
1.448970609,4.3625,1.814138577,5.6917,0,53,53,268,1,431_ab5a1dbbe9292ac7f74e276cdabcd372e2c1f852ff34bf7cc6646ef8_circblurint.jpg,3.102584,0.354334,circularblurringint,ervi22,2022-06-03_15h54.16.415,ratings,2022.1.1,Win32,60.12144532
-2.221441805,4.6457,-2.296348457,7.805,0,54,54,263,1,416_8a1f874e0057d67a4e6955865ba88b2d8ce2c8b4469589307687a723_circblurext.jpg,-1.753336,3.088264,circularblurringext,ervi22,2022-06-03_15h54.16.415,ratings,2022.1.1,Win32,60.12144532
-2.736423078,3.4173,-2.35252809,6.1905,0,55,55,321,1,460_e06b3af7ff2f2bfb5f9b6e3d5dc25b9aaa40b84823fac8fd934621bd_blur.jpg,-3.430992,-1.607468,blurring,ervi22,2022-06-03_15h54.16.415,ratings,2022.1.1,Win32,60.12144532
-0.339419476,2.9863,-0.404962261,14.4178,0,56,56,281,1,440_9bf7e8609729bf888835168834da6c3ff30b75d0d4f36e2ee6918bcc_circblurext.jpg,-2.284164,2.710028,circularblurringext,ervi22,2022-06-03_15h54.16.415,ratings,2022.1.1,Win32,60.12144532
-2.324437917,10.6502,1.505149527,12.7591,0,57,57,317,1,459_46e25de472bb056cb470716d30937415f7344bfc4354d6eb710d8c9f_circblurext.jpg,0.03174604,0.0,circularblurringext,ervi22,2022-06-03_15h54.16.415,ratings,2022.1.1,Win32,60.12144532
0.550093633,2.9707,1.636236527,6.9093,0,58,58,544,1,1005_b980c0747d20935bc63cc27a9e05ce2ff5bae98f859872ec48edd7f5_circblurint.jpg,3.428572,-0.476192,circularblurringint,ervi22,2022-06-03_15h54.16.415,ratings,2022.1.1,Win32,60.12144532
1.477060782,5.7997,2.759832032,7.916,0,59,59,288,1,442_7449d79dae5d652af9b2429872cabdef938646ba024db2f431b3b28d_orig.jpg,1.619048,0.126984,original,ervi22,2022-06-03_15h54.16.415,ratings,2022.1.1,Win32,60.12144532
-2.446161049,4.7456,-2.521066987,6.9422,0,60,60,511,1,858_2f6539ee36aba48c38dc716d4f7c3ae93367d6ddf23ab41745d4172c_bw.jpg,0.0623832,0.176752,blackwhite,ervi22,2022-06-03_15h54.16.415,ratings,2022.1.1,Win32,60.12144532
1.701779312,4.9955,3.302903479,7.7907,0,61,61,503,1,854_081a8409e4d6d10923b2dedcc16a3fca405fcd602e55a20d84cac69d_circblurext.jpg,3.088264,1.21538,circularblurringext,ervi22,2022-06-03_15h54.16.415,ratings,2022.1.1,Win32,60.12144532
-0.517321526,2.5733,-0.32069317,5.4131,0,62,62,453,1,716_2ab64478147184c4df720a52cf621875addc9007cb2967e4a9a88909_blur.jpg,2.428484,0.0,blurring,ervi22,2022-06-03_15h54.16.415,ratings,2022.1.1,Win32,60.12144532
-2.717696772,3.3156,1.261704691,8.8166,0,63,63,497,1,824_b1d91cc824ce0d3d383d3147da88d3d6dbaf6be918bab79e3ec8f501_circblurext.jpg,-3.645176,-1.432784,circularblurringext,ervi22,2022-06-03_15h54.16.415,ratings,2022.1.1,Win32,60.12144532
-2.577247334,5.7096,-2.35252809,7.0051,0,64,64,363,1,508_a7a9519cdc7aad6844030f4e6cd96cffd1b9c49b71e20ea52789bda2_blur.jpg,-3.000388,-1.29694,blurring,ervi22,2022-06-03_15h54.16.415,ratings,2022.1.1,Win32,60.12144532
-3.007958801,1.8198,-2.418070875,13.1292,0,65,65,163,1,361_b5541309527dc3c2422f45a95ebb0ed32005e6fe10d0489a1ff1fbdc_bw.jpg,-3.987612,-0.2516452,blackwhite,ervi22,2022-06-03_15h54.16.415,ratings,2022.1.1,Win32,60.12144532
0.596910112,3.2424,1.701779312,5.7662,0,66,66,257,1,416_5eb54976bb41ce2a6d129ef985f792e716f010fb9b69b15f50f5d2db_circblurext.jpg,-2.58766,2.602972,circularblurringext,ervi22,2022-06-03_15h54.16.415,ratings,2022.1.1,Win32,60.12144532
-0.414326128,2.973,-0.376872088,4.4515,0,67,67,127,1,349_18d92ef5c21ca70a3dd237aad251594e1688bbe01d8cff37b89c46b8_bw.jpg,-2.74874,-1.258228,blackwhite,ervi22,2022-06-03_15h54.16.415,ratings,2022.1.1,Win32,60.12144532
1.317883609,5.7191,1.626872659,7.0776,0,68,68,122,1,347_27f0e47c2722605b950ccf9fa900f78271e4c3c874064ab5dacac160_edges.jpg,1.838948,0.3097172,edges,ervi22,2022-06-03_15h54.16.415,ratings,2022.1.1,Win32,60.12144532
-1.706460531,17.5056,0.615636418,11.7321,0,69,69,194,1,379_eeaa6d9bf5a4ef205dc48bc505cf3a7f24ea86e99af9b371e03602a7_edges.jpg,-0.3926308,2.88936,edges,ervi22,2022-06-03_15h54.16.415,ratings,2022.1.1,Win32,60.12144532
2.797284644,10.5954,2.853464991,8.7199,0,70,70,29,1,59_8568373b727f29d67ba6ce4c360dd918c8b08b13495fca56bdda5e82_circblurext.jpg,2.064896,0.505688,circularblurringext,ervi22,2022-06-03_15h54.16.415,ratings,2022.1.1,Win32,60.12144532
3.677435314,9.1355,3.686797753,11.3261,0,71,71,180,1,369_98db62a1bdabfd1bc551180da6658005b461585cd21614633cf76470_orig.jpg,2.190476,-0.03174604,original,ervi22,2022-06-03_15h54.16.415,ratings,2022.1.1,Win32,60.12144532
3.761704406,2.0588,3.87406367,4.8608,0,72,72,7,1,28_6318543b74eeb646a1735477ebc023fdc9ac3849bc0db1957c272a26_bw.jpg,2.811244,-0.74584,blackwhite,ervi22,2022-06-03_15h54.16.415,ratings,2022.1.1,Win32,60.12144532
3.508895703,3.2668,3.583802355,4.6784,0,73,73,500,1,854_081a8409e4d6d10923b2dedcc16a3fca405fcd602e55a20d84cac69d_edges.jpg,3.088264,1.21538,edges,ervi22,2022-06-03_15h54.16.415,ratings,2022.1.1,Win32,60.12144532
1.430244303,2.3344,1.289794865,3.8805,0,74,74,80,1,242_85283f6935a89812ab229dcad9ba184529c9242ac3106d768ecf3ab3_edges.jpg,2.14918,-0.2949852,edges,ervi22,2022-06-03_15h54.16.415,ratings,2022.1.1,Win32,60.12144532
-1.219568717,2.6513,-2.174625325,4.7285,0,75,75,134,1,349_8809a67686d34844c915d7700e2ea72ad1c02ae232ae0d3cc0e458d4_edges.jpg,-3.619048,-0.2857144,edges,ervi22,2022-06-03_15h54.16.415,ratings,2022.1.1,Win32,60.12144532
0.47518698,2.8701,1.486423221,4.9982,0,76,76,8,1,28_6318543b74eeb646a1735477ebc023fdc9ac3849bc0db1957c272a26_edges.jpg,2.811244,-0.74584,edges,ervi22,2022-06-03_15h54.16.415,ratings,2022.1.1,Win32,60.12144532
1.870318924,2.2689,2.441479115,4.2655,0,77,77,74,1,236_f645730e1eb06155418c9a571329cc7fa320654fcaaedf1048b5cc11_edges.jpg,2.253968,0.0,edges,ervi22,2022-06-03_15h54.16.415,ratings,2022.1.1,Win32,60.12144532
-1.425561655,5.127,-1.781367184,8.9288,0,78,78,62,1,156_08e8cf8f04630e9213e610580de73f51572d1d589878648700bae4dc_edges.jpg,2.222224,0.0,edges,ervi22,2022-06-03_15h54.16.415,ratings,2022.1.1,Win32,60.12144532
-0.526685393,6.2076,-0.395598394,7.6212,0,79,79,226,1,403_57ac47f43882fc031a6067b1a388c0b2cbe8708dcbd2ff1019932eff_circblurint.jpg,-3.333332,-1.396824,circularblurringint,ervi22,2022-06-03_15h54.16.415,ratings,2022.1.1,Win32,60.12144532
0.671816765,2.6676,0.615636418,5.8654,0,80,80,379,1,640_0ddb4981a5f5842ed5b4f7ef941be53779189df5e718b1fc5475ad80_bw.jpg,2.571428,-1.873016,blackwhite,ervi22,2022-06-03_15h54.16.415,ratings,2022.1.1,Win32,60.12144532
-3.007958801,4.8913,-3.363763616,6.419,0,81,81,295,1,449_9c1e990a3480e5b51430fe76b0188e69ba2468fd6a866b88b2d0dd75_bw.jpg,0.095238,0.03174604,blackwhite,ervi22,2022-06-03_15h54.16.415,ratings,2022.1.1,Win32,60.12144532
0.250468451,6.44,2.291667238,7.7201,0,82,82,58,1,137_0e6a04243c0a42a5e2528a2d181255ca2a4b7bd6e7978c5c2059c69f_circblurint.jpg,-0.95238,2.095236,circularblurringint,ervi22,2022-06-03_15h54.16.415,ratings,2022.1.1,Win32,60.12144532
-3.036048261,2.8173,2.169944106,8.3041,0,83,83,103,1,284_cdcbd54fc995081ac95c8b2c37a19cebb341f61a8eb268cee1623492_bw.jpg,-1.015872,2.095236,blackwhite,ervi22,2022-06-03_15h54.16.415,ratings,2022.1.1,Win32,60.12144532
-0.386235955,2.5336,2.198034279,5.0003,0,84,84,130,1,349_18d92ef5c21ca70a3dd237aad251594e1688bbe01d8cff37b89c46b8_circblurint.jpg,-2.74874,-1.258228,circularblurringint,ervi22,2022-06-03_15h54.16.415,ratings,2022.1.1,Win32,60.12144532
-3.532303228,6.9729,-2.212078652,9.0671,0,85,85,574,1,1039_d64da8480fc6e94dcdc513237d600570ae0b9fe48795ac6a8b2d29a7_circblurint.jpg,-2.507936,-1.142856,circularblurringint,ervi22,2022-06-03_15h54.16.415,ratings,2022.1.1,Win32,60.12144532
0.643726592,7.9547,1.439606742,9.2816,0,86,86,54,1,137_0e6a04243c0a42a5e2528a2d181255ca2a4b7bd6e7978c5c2059c69f_orig.jpg,-0.95238,2.095236,original,ervi22,2022-06-03_15h54.16.415,ratings,2022.1.1,Win32,60.12144532
0.175561798,3.8962,0.634364153,5.0603,0,87,87,431,1,694_7a14b8ab7c564dcb0f628c4de7f6cb54e4c5f6601f774bf167641c37_circblurext.jpg,1.819588,0.116144,circularblurringext,ervi22,2022-06-03_15h54.16.415,ratings,2022.1.1,Win32,60.12144532
0.596910112,2.3868,1.645598965,3.7807,0,88,88,542,1,1005_b980c0747d20935bc63cc27a9e05ce2ff5bae98f859872ec48edd7f5_edges.jpg,3.428572,-0.476192,edges,ervi22,2022-06-03_15h54.16.415,ratings,2022.1.1,Win32,60.12144532
2.188670412,2.0387,2.226124453,3.397,0,89,89,466,1,736_bb85db1bcda8eb34299aa5791ac65a0a7c343266eb2d6e6e328ec0e1_circblurint.jpg,3.650792,-0.03174604,circularblurringint,ervi22,2022-06-03_15h54.16.415,ratings,2022.1.1,Win32,60.12144532
3.125,3.9146,3.359082397,5.6921,0,90,90,40,1,82_43f4d5aec7c2e5bd495473f6708a0f2d47c9fe34e1fe9436646cb036_circblurint.jpg,2.022756,0.505688,circularblurringint,ervi22,2022-06-03_15h54.16.415,ratings,2022.1.1,Win32,60.12144532
3.218632959,3.4504,3.405898876,1.8014,0,91,91,198,1,380_34772591c787182a37724027eac6948ebc9d4064f6a601d23b923b8e_orig.jpg,2.222224,-0.063492,original,ervi22,2022-06-03_15h54.16.415,ratings,2022.1.1,Win32,60.12144532
-2.530430854,2.2321,-2.530430854,8.793,0,92,92,142,1,353_44e285740cb41818482ac93fc5fbd72c18029444a1d7506c9fc053e7_circblurint.jpg,-3.232676,-0.87108,circularblurringint,ervi22,2022-06-03_15h54.16.415,ratings,2022.1.1,Win32,60.12144532
-0.536047832,15.0364,-0.592228179,23.7771,0,93,93,56,1,137_0e6a04243c0a42a5e2528a2d181255ca2a4b7bd6e7978c5c2059c69f_edges.jpg,-0.95238,2.095236,edges,ervi22,2022-06-03_15h54.16.415,ratings,2022.1.1,Win32,60.12144532
-3.288857678,3.4354,-1.697097378,11.1106,0,94,94,107,1,284_cdcbd54fc995081ac95c8b2c37a19cebb341f61a8eb268cee1623492_circblurext.jpg,-1.015872,2.095236,circularblurringext,ervi22,2022-06-03_15h54.16.415,ratings,2022.1.1,Win32,60.12144532
1.551966006,2.8168,2.179307973,4.0801,0,95,95,17,1,39_2fafccaa4dc69045a05845f59c6b3cd2edcf7e0e0c108b24e553afe0_circblurext.jpg,2.022756,0.463548,circularblurringext,ervi22,2022-06-03_15h54.16.415,ratings,2022.1.1,Win32,60.12144532
2.787922206,2.5061,2.797284644,4.5819,0,96,96,340,1,492_a1a4d288d3bc486c83c3b6a835c42891989f5ba781633932298a7676_circblurint.jpg,3.406892,-0.44522,circularblurringint,ervi22,2022-06-03_15h54.16.415,ratings,2022.1.1,Win32,60.12144532
-0.292602996,2.0746,-0.433052434,3.8465,0,97,97,437,1,694_f80f33613b268beffd6c044537cf3b44a84683d6e889bc37b8e9c34b_circblurext.jpg,-0.3785616,3.34728,circularblurringext,ervi22,2022-06-03_15h54.16.415,ratings,2022.1.1,Win32,60.12144532
0.503277154,2.1255,1.261704691,3.5379,0,98,98,90,1,258_d26019382777d2159a974a7654923e71598135ce2cd710cea1f92865_orig.jpg,3.497684,-0.61104,original,ervi22,2022-06-03_15h54.16.415,ratings,2022.1.1,Win32,60.12144532
-0.601592046,1.9239,-0.526685393,3.1537,0,99,99,561,1,1022_cf035e583d41a856836f8b0ae314ecbe79dffd9e40ef6a08cc26028f_blur.jpg,-0.2516452,3.05846,blurring,ervi22,2022-06-03_15h54.16.415,ratings,2022.1.1,Win32,60.12144532
-1.434924808,2.1526,-1.594101266,3.8015,0,100,100,23,1,48_2cc936b2483ab2944c9158e163342b874ef6c1492fd8fca08c0e096e_circblurext.jpg,-1.264224,-0.779604,circularblurringext,ervi22,2022-06-03_15h54.16.415,ratings,2022.1.1,Win32,60.12144532
-0.330055608,1.8527,1.252340824,6.4407,0,101,101,207,1,381_5935a9f9796adce2f1539af6c75bcdc0c80d847a2ce9b77cf59b7672_blur.jpg,-1.327432,-0.442476,blurring,ervi22,2022-06-03_15h54.16.415,ratings,2022.1.1,Win32,60.12144532
1.551966006,2.5504,1.729869485,3.7308,0,102,102,3,1,13_771f4fcf0a212d25d6a78565e7f34cc5ddd823e7afbdc77ef063326e_blur.jpg,2.190476,0.0,blurring,ervi22,2022-06-03_15h54.16.415,ratings,2022.1.1,Win32,60.12144532
3.050093347,3.4979,3.199906653,4.5954,0,103,103,115,1,332_4d584229bdae2e1782f77f0e953e528f13c3dfa79b4b94736c0310fa_bw.jpg,3.157348,0.483092,blackwhite,ervi22,2022-06-03_15h54.16.415,ratings,2022.1.1,Win32,60.12144532
-2.30571161,4.9148,-1.163389799,8.2906,0,104,104,556,1,1014_a5c212ca979d482cf94c2db7697aba75620391a64b030ab7ad2bbecf_circblurint.jpg,-3.174604,-1.374372,circularblurringint,ervi22,2022-06-03_15h54.16.415,ratings,2022.1.1,Win32,60.12144532
2.647472767,2.2097,2.666199073,3.9465,0,105,105,502,1,854_081a8409e4d6d10923b2dedcc16a3fca405fcd602e55a20d84cac69d_circblurint.jpg,3.088264,1.21538,circularblurringint,ervi22,2022-06-03_15h54.16.415,ratings,2022.1.1,Win32,60.12144532
-2.539794007,3.1706,-2.970505475,5.2432,0,106,106,238,1,410_9633c4ff6e8888fcfca59a60ca86e9606d3e0736500a254101bdf295_circblurint.jpg,-0.3677892,2.981028,circularblurringint,ervi22,2022-06-03_15h54.16.415,ratings,2022.1.1,Win32,60.12144532
-1.659644052,3.1041,-1.612827572,4.2962,0,107,107,510,1,858_2f6539ee36aba48c38dc716d4f7c3ae93367d6ddf23ab41745d4172c_orig.jpg,0.0623832,0.176752,original,ervi22,2022-06-03_15h54.16.415,ratings,2022.1.1,Win32,60.12144532
3.265449438,2.136,3.658707579,4.0181,0,108,108,184,1,369_98db62a1bdabfd1bc551180da6658005b461585cd21614633cf76470_circblurint.jpg,2.190476,-0.03174604,circularblurringint,ervi22,2022-06-03_15h54.16.415,ratings,2022.1.1,Win32,60.12144532
3.724251794,2.7006,3.583802355,8.3897,0,109,109,449,1,709_69c01dcde028a2a1a913f1a2a5026ae1748484f75c89217a040c6791_circblurext.jpg,1.432444,-0.01935732,circularblurringext,ervi22,2022-06-03_15h54.16.415,ratings,2022.1.1,Win32,60.12144532
-0.133427252,4.2613,-0.489231353,5.2288,0,110,110,596,1,1239_cee00457f4cfb76a407b12fd5ad714d440a4614c1e5467ee16caf618_edges.jpg,-0.03174604,0.190476,edges,ervi22,2022-06-03_15h54.16.415,ratings,2022.1.1,Win32,60.12144532
0.802902336,5.4743,0.699906939,9.2651,0,111,111,112,1,293_3dfdfafc0c6a54b2da7453750ac281f7718c0b3337b0a74c4563d6bd_circblurint.jpg,-2.574524,2.632596,circularblurringint,ervi22,2022-06-03_15h54.16.415,ratings,2022.1.1,Win32,60.12144532
-1.687734225,2.4352,-0.873127055,3.8306,0,112,112,514,1,858_2f6539ee36aba48c38dc716d4f7c3ae93367d6ddf23ab41745d4172c_circblurint.jpg,0.0623832,0.176752,circularblurringint,ervi22,2022-06-03_15h54.16.415,ratings,2022.1.1,Win32,60.12144532
-0.27387669,2.319,-0.330055608,7.3571,0,113,113,594,1,1239_cee00457f4cfb76a407b12fd5ad714d440a4614c1e5467ee16caf618_orig.jpg,-0.03174604,0.190476,original,ervi22,2022-06-03_15h54.16.415,ratings,2022.1.1,Win32,60.12144532
-0.554775567,2.6172,-0.461142608,3.7047,0,114,114,297,1,449_9c1e990a3480e5b51430fe76b0188e69ba2468fd6a866b88b2d0dd75_blur.jpg,0.095238,0.03174604,blurring,ervi22,2022-06-03_15h54.16.415,ratings,2022.1.1,Win32,60.12144532
2.46020685,2.1352,2.684925379,3.4156,0,115,115,498,1,854_081a8409e4d6d10923b2dedcc16a3fca405fcd602e55a20d84cac69d_orig.jpg,3.088264,1.21538,original,ervi22,2022-06-03_15h54.16.415,ratings,2022.1.1,Win32,60.12144532
-2.530430854,2.1192,1.589420047,3.8307,0,116,116,157,1,358_157f8ac929713531a15b1ecf115e7b659cb90e83d675251e368d165f_bw.jpg,-3.777776,-0.571428,blackwhite,ervi22,2022-06-03_15h54.16.415,ratings,2022.1.1,Win32,60.12144532
1.720505618,2.5352,1.542603568,3.7692,0,117,117,230,1,407_578d31d32e806706dde2563213f130b90e621abfed0e47ecabd85d27_edges.jpg,3.5873,-0.444444,edges,ervi22,2022-06-03_15h54.16.415,ratings,2022.1.1,Win32,60.12144532
2.282303371,3.5021,2.591292421,4.7614,0,118,118,233,1,407_578d31d32e806706dde2563213f130b90e621abfed0e47ecabd85d27_circblurext.jpg,3.5873,-0.444444,circularblurringext,ervi22,2022-06-03_15h54.16.415,ratings,2022.1.1,Win32,60.12144532
-0.442414873,2.1526,-0.517321526,3.2329,0,119,119,55,1,137_0e6a04243c0a42a5e2528a2d181255ca2a4b7bd6e7978c5c2059c69f_bw.jpg,-0.95238,2.095236,blackwhite,ervi22,2022-06-03_15h54.16.415,ratings,2022.1.1,Win32,60.12144532
2.581928553,2.0398,2.497659462,3.4967,0,120,120,190,1,369_c99797771115d7627d4abe3415f814497288f91a7be1a04c17c776b9_circblurint.jpg,3.619824,-0.174216,circularblurringint,ervi22,2022-06-03_15h54.16.415,ratings,2022.1.1,Win32,60.12144532
1.879681362,7.307,1.673689139,8.4847,0,121,121,77,1,236_f645730e1eb06155418c9a571329cc7fa320654fcaaedf1048b5cc11_circblurext.jpg,2.253968,0.0,circularblurringext,ervi22,2022-06-03_15h54.16.415,ratings,2022.1.1,Win32,60.12144532
-3.288857678,5.2641,-2.989231781,7.3375,0,122,122,418,1,692_7d7eaf20e6de8956f0fca7500ace97a8599aa8b605a7d690cdb28724_circblurint.jpg,-2.063492,-1.26984,circularblurringint,ervi22,2022-06-03_15h54.16.415,ratings,2022.1.1,Win32,60.12144532
-2.389981416,3.9837,0.802902336,5.1937,0,123,123,361,1,508_a7a9519cdc7aad6844030f4e6cd96cffd1b9c49b71e20ea52789bda2_bw.jpg,-3.000388,-1.29694,blackwhite,ervi22,2022-06-03_15h54.16.415,ratings,2022.1.1,Win32,60.12144532
0.737359551,3.0996,0.409644195,4.3614,0,124,124,305,1,453_54f106fd1d4b65fa4aa347407127fc30d49f791e81aee3a0bbe44489_circblurext.jpg,2.222224,0.0,circularblurringext,ervi22,2022-06-03_15h54.16.415,ratings,2022.1.1,Win32,60.12144532
2.469569288,2.871,2.41339037,4.5145,0,125,125,410,1,687_e3b018945792a574962235c88c553b7c318c75eec2596478e8a7b877_edges.jpg,3.63918,-0.42586,edges,ervi22,2022-06-03_15h54.16.415,ratings,2022.1.1,Win32,60.12144532
-3.682115819,5.4114,-2.811329731,7.412,0,126,126,396,1,683_a004ad18331da968da5debdd15e1447dd7748750af0bc6c57b844200_orig.jpg,-2.91956,2.466524,original,ervi22,2022-06-03_15h54.16.415,ratings,2022.1.1,Win32,60.12144532
1.027622294,1.623,1.364700089,3.0828,0,127,127,473,1,741_2b218fb015e3da83db73cacdb52e61e0c2534c1fe255bb1c5c74d47f_circblurext.jpg,3.140096,0.448584,circularblurringext,ervi22,2022-06-03_15h54.16.415,ratings,2022.1.1,Win32,60.12144532
2.535112074,1.7857,2.497659462,2.9487,0,128,128,201,1,380_34772591c787182a37724027eac6948ebc9d4064f6a601d23b923b8e_blur.jpg,2.222224,-0.063492,blurring,ervi22,2022-06-03_15h54.16.415,ratings,2022.1.1,Win32,60.12144532
-2.605336793,3.498,-2.492977528,4.978,0,129,129,274,1,434_ba36d91204d7e578001f6a545d7501e65d209554def5a3c8b7583825_circblurint.jpg,-3.523808,1.428572,circularblurringint,ervi22,2022-06-03_15h54.16.415,ratings,2022.1.1,Win32,60.12144532
1.626872659,2.1197,2.844101124,4.117,0,130,130,20,1,48_2cc936b2483ab2944c9158e163342b874ef6c1492fd8fca08c0e096e_edges.jpg,-1.264224,-0.779604,edges,ervi22,2022-06-03_15h54.16.415,ratings,2022.1.1,Win32,60.12144532
3.462079223,3.5167,3.405898876,4.8278,0,131,131,391,1,663_aaf52107fe3a86392530d88b34e86f9d2b6820714cad98d1e3c2cb67_bw.jpg,2.58766,0.0918696,blackwhite,ervi22,2022-06-03_15h54.16.415,ratings,2022.1.1,Win32,60.12144532
1.205524345,1.9885,2.488295594,5.3091,0,132,132,509,1,855_66d893451dfd1e7615132071c6c8a82b02dc2b37781cd89400883b26_circblurext.jpg,2.69484,0.2143624,circularblurringext,ervi22,2022-06-03_15h54.16.415,ratings,2022.1.1,Win32,60.12144532
-1.715823684,1.602,-2.118445693,5.6232,0,133,133,536,1,986_a77edb21e78bc3a6aa7406517824596b3496ad6c657b6befb84cf370_edges.jpg,-3.906316,-0.60496,edges,ervi22,2022-06-03_15h54.16.415,ratings,2022.1.1,Win32,60.12144532
1.739231924,2.0369,2.81601095,4.2962,0,134,134,96,1,267_792043debad81ce271cec5b3c3bd9d264efc13f362bec9c7a3f72fe7_orig.jpg,1.980616,0.2107036,original,ervi22,2022-06-03_15h54.16.415,ratings,2022.1.1,Win32,60.12144532
2.282303371,1.8861,3.087547388,3.1657,0,135,135,0,1,13_771f4fcf0a212d25d6a78565e7f34cc5ddd823e7afbdc77ef063326e_orig.jpg,2.190476,0.0,original,ervi22,2022-06-03_15h54.16.415,ratings,2022.1.1,Win32,60.12144532
-0.32069317,3.0033,0.568819939,4.478,0,136,136,209,1,381_5935a9f9796adce2f1539af6c75bcdc0c80d847a2ce9b77cf59b7672_circblurext.jpg,-1.327432,-0.442476,circularblurringext,ervi22,2022-06-03_15h54.16.415,ratings,2022.1.1,Win32,60.12144532
1.561329874,1.7364,2.310393544,2.8224,0,137,137,32,1,60_ad52063167538de24f94d7dfd04808cb94cf8f426c40871d2f126505_edges.jpg,2.158732,0.0,edges,ervi22,2022-06-03_15h54.16.415,ratings,2022.1.1,Win32,60.12144532
-2.502340681,3.2007,0.662452898,4.7622,0,138,138,532,1,915_dc9fd40a3b5d64a180833a7bac86e7556c24f681f473fe255e41f936_circblurint.jpg,-3.09294,-0.918696,circularblurringint,ervi22,2022-06-03_15h54.16.415,ratings,2022.1.1,Win32,60.12144532
2.516385768,2.3524,3.377808703,5.1443,0,139,139,73,1,236_f645730e1eb06155418c9a571329cc7fa320654fcaaedf1048b5cc11_bw.jpg,2.253968,0.0,blackwhite,ervi22,2022-06-03_15h54.16.415,ratings,2022.1.1,Win32,60.12144532
2.310393544,2.6845,2.86282743,3.9347,0,140,140,125,1,347_27f0e47c2722605b950ccf9fa900f78271e4c3c874064ab5dacac160_circblurext.jpg,1.838948,0.3097172,circularblurringext,ervi22,2022-06-03_15h54.16.415,ratings,2022.1.1,Win32,60.12144532
1.551966006,3.117,2.357210024,4.0681,0,141,141,150,1,355_00a76f54934d36566dd0e7b091b8aa6a56d8e6b32d349aa578a10b45_orig.jpg,2.910052,0.3439152,original,ervi22,2022-06-03_15h54.16.415,ratings,2022.1.1,Win32,60.12144532
2.291667238,1.5369,2.291667238,3.2652,0,142,142,413,1,687_e3b018945792a574962235c88c553b7c318c75eec2596478e8a7b877_circblurext.jpg,3.63918,-0.42586,circularblurringext,ervi22,2022-06-03_15h54.16.415,ratings,2022.1.1,Win32,60.12144532
-0.18960617,2.8158,-2.399344569,3.816,0,143,143,131,1,349_18d92ef5c21ca70a3dd237aad251594e1688bbe01d8cff37b89c46b8_circblurext.jpg,-2.74874,-1.258228,circularblurringext,ervi22,2022-06-03_15h54.16.415,ratings,2022.1.1,Win32,60.12144532
-0.479868914,2.6343,-0.564138005,3.9807,0,144,144,429,1,694_7a14b8ab7c564dcb0f628c4de7f6cb54e4c5f6601f774bf167641c37_blur.jpg,1.819588,0.116144,blurring,ervi22,2022-06-03_15h54.16.415,ratings,2022.1.1,Win32,60.12144532
1.598782486,1.7532,1.814138577,2.7879,0,145,145,446,1,709_69c01dcde028a2a1a913f1a2a5026ae1748484f75c89217a040c6791_edges.jpg,1.432444,-0.01935732,edges,ervi22,2022-06-03_15h54.16.415,ratings,2022.1.1,Win32,60.12144532
-2.680243446,3.4368,1.214888212,8.65,0,146,146,89,1,243_beddb302dcb21071d88c8d2cab07002050d36b3001ef28f89389fa56_circblurext.jpg,-0.3450656,-0.2070392,circularblurringext,ervi22,2022-06-03_15h54.16.415,ratings,2022.1.1,Win32,60.12144532
-2.427434028,1.4749,-3.251404352,7.3092,0,147,147,414,1,692_7d7eaf20e6de8956f0fca7500ace97a8599aa8b605a7d690cdb28724_orig.jpg,-2.063492,-1.26984,original,ervi22,2022-06-03_15h54.16.415,ratings,2022.1.1,Win32,60.12144532
1.214888212,4.3515,2.46020685,2.8972,0,148,148,381,1,640_0ddb4981a5f5842ed5b4f7ef941be53779189df5e718b1fc5475ad80_blur.jpg,2.571428,-1.873016,blurring,ervi22,2022-06-03_15h54.16.415,ratings,2022.1.1,Win32,60.12144532
2.263577065,2.6841,3.396536438,3.7546,0,149,149,581,1,1061_665178b9cb0bc869cc2e2b68def4838db04e66f9531098fb75875a09_circblurext.jpg,0.3492064,-0.3174604,circularblurringext,ervi22,2022-06-03_15h54.16.415,ratings,2022.1.1,Win32,60.12144532
2.394662636,2.4381,2.581928553,5.045,0,150,150,447,1,709_69c01dcde028a2a1a913f1a2a5026ae1748484f75c89217a040c6791_blur.jpg,1.432444,-0.01935732,blurring,ervi22,2022-06-03_15h54.16.415,ratings,2022.1.1,Win32,60.12144532
1.35533765,2.1243,1.327247477,3.2323,0,151,151,548,1,1010_06d15f44b979c086561137000ec070ba4cd479856f92840a7850b2bf_edges.jpg,0.189786,-0.189786,edges,ervi22,2022-06-03_15h54.16.415,ratings,2022.1.1,Win32,60.12144532
-1.575374246,5.0301,0.615636418,12.961,0,152,152,128,1,349_18d92ef5c21ca70a3dd237aad251594e1688bbe01d8cff37b89c46b8_edges.jpg,-2.74874,-1.258228,edges,ervi22,2022-06-03_15h54.16.415,ratings,2022.1.1,Win32,60.12144532
0.287921063,14.7817,0.278558624,18.2436,0,153,153,172,1,365_45a719cabbc9aa308c4fcb30d529489c6966ac4073874af84f665c61_circblurint.jpg,2.507936,-1.968252,circularblurringint,ervi22,2022-06-03_15h54.16.415,ratings,2022.1.1,Win32,60.12144532
-2.296348457,4.2992,-2.212078652,7.9056,0,154,154,270,1,434_ba36d91204d7e578001f6a545d7501e65d209554def5a3c8b7583825_orig.jpg,-3.523808,1.428572,original,ervi22,2022-06-03_15h54.16.415,ratings,2022.1.1,Win32,60.12144532
-0.217696343,1.6524,-0.330055608,2.8033,0,155,155,59,1,137_0e6a04243c0a42a5e2528a2d181255ca2a4b7bd6e7978c5c2059c69f_circblurext.jpg,-0.95238,2.095236,circularblurringext,ervi22,2022-06-03_15h54.16.415,ratings,2022.1.1,Win32,60.12144532
-1.622190725,4.9257,-1.266385196,6.5083,0,156,156,83,1,242_85283f6935a89812ab229dcad9ba184529c9242ac3106d768ecf3ab3_circblurext.jpg,2.14918,-0.2949852,circularblurringext,ervi22,2022-06-03_15h54.16.415,ratings,2022.1.1,Win32,60.12144532
-2.427434028,1.6739,1.617510221,3.1961,0,157,157,246,1,414_0187bdf7007109b487865b6a9d388997a6817acf052a6a7cdd5b39d9_orig.jpg,-2.786708,-1.133056,original,ervi22,2022-06-03_15h54.16.415,ratings,2022.1.1,Win32,60.12144532
-0.067883038,6.0917,0.531367327,7.986,0,158,158,551,1,1010_06d15f44b979c086561137000ec070ba4cd479856f92840a7850b2bf_circblurext.jpg,0.189786,-0.189786,circularblurringext,ervi22,2022-06-03_15h54.16.415,ratings,2022.1.1,Win32,60.12144532
-0.49859522,6.395,-0.301965435,7.3699,0,159,159,366,1,616_05a637f5281666f53d4e2ef69351485fc21d629b37ee2006b2076eb6_orig.jpg,-2.380952,-0.832364,original,ervi22,2022-06-03_15h54.16.415,ratings,2022.1.1,Win32,60.12144532
-3.457396575,2.1027,-1.846909969,5.6264,0,160,160,241,1,411_adfd0d5782129756321ff671d0cfb712528504c66c863df11aabd1e7_bw.jpg,-3.392332,-1.369576,blackwhite,ervi22,2022-06-03_15h54.16.415,ratings,2022.1.1,Win32,60.12144532
-2.343164937,4.9342,0.690543071,6.524,0,161,161,247,1,414_0187bdf7007109b487865b6a9d388997a6817acf052a6a7cdd5b39d9_bw.jpg,-2.786708,-1.133056,blackwhite,ervi22,2022-06-03_15h54.16.415,ratings,2022.1.1,Win32,60.12144532
0.29728493,3.9012,1.701779312,6.7541,0,162,162,256,1,416_5eb54976bb41ce2a6d129ef985f792e716f010fb9b69b15f50f5d2db_circblurint.jpg,-2.58766,2.602972,circularblurringint,ervi22,2022-06-03_15h54.16.415,ratings,2022.1.1,Win32,60.12144532
-2.221441805,1.4255,0.568819939,2.8006,0,163,163,539,1,986_a77edb21e78bc3a6aa7406517824596b3496ad6c657b6befb84cf370_circblurext.jpg,-3.906316,-0.60496,circularblurringext,ervi22,2022-06-03_15h54.16.415,ratings,2022.1.1,Win32,60.12144532
1.35533765,3.3854,2.422752809,5.5591,0,164,164,517,1,860_05c4e22518a30d3d2add458a8fc6488f87b9b02dd8e385ded939f025_bw.jpg,1.955092,0.3097172,blackwhite,ervi22,2022-06-03_15h54.16.415,ratings,2022.1.1,Win32,60.12144532
2.46020685,4.7688,3.218632959,6.1402,0,165,165,66,1,172_c641c6c56ca6b594b773084e1363c852abdb65f988d7ff802ee503f2_orig.jpg,0.379572,0.01725328,original,ervi22,2022-06-03_15h54.16.415,ratings,2022.1.1,Win32,60.12144532
-0.536047832,1.9407,-0.339419476,3.0693,0,166,166,455,1,716_2ab64478147184c4df720a52cf621875addc9007cb2967e4a9a88909_circblurext.jpg,2.428484,0.0,circularblurringext,ervi22,2022-06-03_15h54.16.415,ratings,2022.1.1,Win32,60.12144532
-0.395598394,1.7527,0.587547674,2.9496,0,167,167,173,1,365_45a719cabbc9aa308c4fcb30d529489c6966ac4073874af84f665c61_circblurext.jpg,2.507936,-1.968252,circularblurringext,ervi22,2022-06-03_15h54.16.415,ratings,2022.1.1,Win32,60.12144532
-2.33380107,2.3685,-2.492977528,4.0623,0,168,168,104,1,284_cdcbd54fc995081ac95c8b2c37a19cebb341f61a8eb268cee1623492_edges.jpg,-1.015872,2.095236,edges,ervi22,2022-06-03_15h54.16.415,ratings,2022.1.1,Win32,60.12144532
-0.479868914,3.1539,0.793539897,4.6156,0,169,169,367,1,616_05a637f5281666f53d4e2ef69351485fc21d629b37ee2006b2076eb6_bw.jpg,-2.380952,-0.832364,blackwhite,ervi22,2022-06-03_15h54.16.415,ratings,2022.1.1,Win32,60.12144532
1.392790262,3.5313,2.422752809,5.0676,0,170,170,285,1,440_dc6413e2b65369ee2587f4d85621742fe4ca87392d0a8ad2ea7d94e3_blur.jpg,-3.016216,1.69404,blurring,ervi22,2022-06-03_15h54.16.415,ratings,2022.1.1,Win32,60.12144532
1.598782486,1.7583,2.216760585,3.3815,0,171,171,16,1,39_2fafccaa4dc69045a05845f59c6b3cd2edcf7e0e0c108b24e553afe0_circblurint.jpg,2.022756,0.463548,circularblurringint,ervi22,2022-06-03_15h54.16.415,ratings,2022.1.1,Win32,60.12144532
2.141853933,2.4559,2.553839809,10.2891,0,172,172,546,1,1010_06d15f44b979c086561137000ec070ba4cd479856f92840a7850b2bf_orig.jpg,0.189786,-0.189786,original,ervi22,2022-06-03_15h54.16.415,ratings,2022.1.1,Win32,60.12144532
0.718633245,2.6148,1.654962833,4.9938,0,173,173,100,1,267_792043debad81ce271cec5b3c3bd9d264efc13f362bec9c7a3f72fe7_circblurint.jpg,1.980616,0.2107036,circularblurringint,ervi22,2022-06-03_15h54.16.415,ratings,2022.1.1,Win32,60.12144532
-0.404962261,3.4481,-0.489231353,4.4626,0,174,174,153,1,355_00a76f54934d36566dd0e7b091b8aa6a56d8e6b32d349aa578a10b45_blur.jpg,2.910052,0.3439152,blurring,ervi22,2022-06-03_15h54.16.415,ratings,2022.1.1,Win32,60.12144532
1.252340824,1.9857,1.58005618,3.2651,0,175,175,470,1,741_2b218fb015e3da83db73cacdb52e61e0c2534c1fe255bb1c5c74d47f_edges.jpg,3.140096,0.448584,edges,ervi22,2022-06-03_15h54.16.415,ratings,2022.1.1,Win32,60.12144532
-0.348781914,3.0818,-0.648408525,4.0966,0,176,176,218,1,396_208259ea431d47bb7f3946213eb099834eb119756ce304ad473d4d9f_edges.jpg,2.857144,-0.3809524,edges,ervi22,2022-06-03_15h54.16.415,ratings,2022.1.1,Win32,60.12144532
-1.434924808,2.4862,-2.418070875,5.4615,0,177,177,386,1,646_577760d718dab44c6f04d77408c5644a120065ce07a9503957d0850a_edges.jpg,-2.690668,2.61324,edges,ervi22,2022-06-03_15h54.16.415,ratings,2022.1.1,Win32,60.12144532
1.879681362,1.5382,2.432116676,2.5341,0,178,178,516,1,860_05c4e22518a30d3d2add458a8fc6488f87b9b02dd8e385ded939f025_orig.jpg,1.955092,0.3097172,original,ervi22,2022-06-03_15h54.16.415,ratings,2022.1.1,Win32,60.12144532
-1.210206278,2.8992,-2.33380107,4.6448,0,179,179,529,1,915_dc9fd40a3b5d64a180833a7bac86e7556c24f681f473fe255e41f936_bw.jpg,-3.09294,-0.918696,blackwhite,ervi22,2022-06-03_15h54.16.415,ratings,2022.1.1,Win32,60.12144532
2.0201308,2.5839,2.282303371,6.5414,0,180,180,390,1,663_aaf52107fe3a86392530d88b34e86f9d2b6820714cad98d1e3c2cb67_orig.jpg,2.58766,0.0918696,original,ervi22,2022-06-03_15h54.16.415,ratings,2022.1.1,Win32,60.12144532
2.41339037,3.1033,3.340356091,10.017,0,181,181,404,1,686_6745b57686ad5d1bd6cf3e7ed5bc0243a154f8939e88e30321dfcfdb_edges.jpg,-1.523808,3.650792,edges,ervi22,2022-06-03_15h54.16.415,ratings,2022.1.1,Win32,60.12144532
-0.629680791,3.863,-0.086610773,5.2087,0,182,182,167,1,361_b5541309527dc3c2422f45a95ebb0ed32005e6fe10d0489a1ff1fbdc_circblurext.jpg,-3.987612,-0.2516452,circularblurringext,ervi22,2022-06-03_15h54.16.415,ratings,2022.1.1,Win32,60.12144532
0.344101409,2.2511,1.5332397,3.3653,0,183,183,98,1,267_792043debad81ce271cec5b3c3bd9d264efc13f362bec9c7a3f72fe7_edges.jpg,1.980616,0.2107036,edges,ervi22,2022-06-03_15h54.16.415,ratings,2022.1.1,Win32,60.12144532
0.269194757,4.7292,1.289794865,6.3408,0,184,184,430,1,694_7a14b8ab7c564dcb0f628c4de7f6cb54e4c5f6601f774bf167641c37_circblurint.jpg,1.819588,0.116144,circularblurringint,ervi22,2022-06-03_15h54.16.415,ratings,2022.1.1,Win32,60.12144532
-0.835674443,4.4982,-2.10908254,6.6056,0,185,185,327,1,468_8b69b13120daebadd8a4a3166e1419f2404395cba231307a4efa9fde_blur.jpg,2.031744,0.2539684,blurring,ervi22,2022-06-03_15h54.16.415,ratings,2022.1.1,Win32,60.12144532
-3.223314178,2.9342,-3.616573034,4.0149,0,186,186,400,1,683_a004ad18331da968da5debdd15e1447dd7748750af0bc6c57b844200_circblurint.jpg,-2.91956,2.466524,circularblurringint,ervi22,2022-06-03_15h54.16.415,ratings,2022.1.1,Win32,60.12144532
-2.380617549,1.6918,-2.530430854,3.0661,0,187,187,275,1,434_ba36d91204d7e578001f6a545d7501e65d209554def5a3c8b7583825_circblurext.jpg,-3.523808,1.428572,circularblurringext,ervi22,2022-06-03_15h54.16.415,ratings,2022.1.1,Win32,60.12144532
-0.348781914,2.122,-0.18960617,3.4484,0,188,188,342,1,494_5c6c3b85a2734a43c24bfe337d42ffcc82b7347227804d01c784cef4_orig.jpg,0.03871468,0.0,original,ervi22,2022-06-03_15h54.16.415,ratings,2022.1.1,Win32,60.12144532
-1.519194614,1.4592,-2.296348457,4.0372,0,189,189,333,1,482_a1cd28915c5044c018195ab0fff10dcc95e385246b045a7cd4463ff7_blur.jpg,-3.361852,-1.555612,blurring,ervi22,2022-06-03_15h54.16.415,ratings,2022.1.1,Win32,60.12144532
-0.227060211,3.0532,1.58005618,5.396,0,190,190,440,1,700_59cb565f134f1afd066d7b6d936c6511b7cb76de0e9cbb5ce15124ad_edges.jpg,0.0,0.0,edges,ervi22,2022-06-03_15h54.16.415,ratings,2022.1.1,Win32,60.12144532
1.88904523,2.2367,2.769194471,6.1491,0,191,191,36,1,82_43f4d5aec7c2e5bd495473f6708a0f2d47c9fe34e1fe9436646cb036_orig.jpg,2.022756,0.505688,original,ervi22,2022-06-03_15h54.16.415,ratings,2022.1.1,Win32,60.12144532
1.383427824,2.4251,2.404026503,3.7145,0,192,192,37,1,82_43f4d5aec7c2e5bd495473f6708a0f2d47c9fe34e1fe9436646cb036_bw.jpg,2.022756,0.505688,blackwhite,ervi22,2022-06-03_15h54.16.415,ratings,2022.1.1,Win32,60.12144532
0.194288104,1.8688,0.60627398,3.0862,0,193,193,113,1,293_3dfdfafc0c6a54b2da7453750ac281f7718c0b3337b0a74c4563d6bd_circblurext.jpg,-2.574524,2.632596,circularblurringext,ervi22,2022-06-03_15h54.16.415,ratings,2022.1.1,Win32,60.12144532
-2.155899019,3.2576,-2.436797896,4.8938,0,194,194,165,1,361_b5541309527dc3c2422f45a95ebb0ed32005e6fe10d0489a1ff1fbdc_blur.jpg,-3.987612,-0.2516452,blurring,ervi22,2022-06-03_15h54.16.415,ratings,2022.1.1,Win32,60.12144532
-3.448033422,3.5359,0.316011236,18.7891,0,195,195,319,1,460_e06b3af7ff2f2bfb5f9b6e3d5dc25b9aaa40b84823fac8fd934621bd_bw.jpg,-3.430992,-1.607468,blackwhite,ervi22,2022-06-03_15h54.16.415,ratings,2022.1.1,Win32,60.12144532
-1.55664794,2.6848,-2.558520314,4.9614,0,196,196,298,1,449_9c1e990a3480e5b51430fe76b0188e69ba2468fd6a866b88b2d0dd75_circblurint.jpg,0.095238,0.03174604,circularblurringint,ervi22,2022-06-03_15h54.16.415,ratings,2022.1.1,Win32,60.12144532
-2.54915716,3.5648,-1.903089602,5.1282,0,197,197,534,1,986_a77edb21e78bc3a6aa7406517824596b3496ad6c657b6befb84cf370_orig.jpg,-3.906316,-0.60496,original,ervi22,2022-06-03_15h54.16.415,ratings,2022.1.1,Win32,60.12144532
0.933989336,2.2179,1.280430997,3.6137,0,198,198,462,1,736_bb85db1bcda8eb34299aa5791ac65a0a7c343266eb2d6e6e328ec0e1_orig.jpg,3.650792,-0.03174604,original,ervi22,2022-06-03_15h54.16.415,ratings,2022.1.1,Win32,60.12144532
1.027622294,3.7979,3.078183521,8.6497,0,199,199,5,1,13_771f4fcf0a212d25d6a78565e7f34cc5ddd823e7afbdc77ef063326e_circblurext.jpg,2.190476,0.0,circularblurringext,ervi22,2022-06-03_15h54.16.415,ratings,2022.1.1,Win32,60.12144532
2.076311147,2.8742,2.0201308,4.1186,0,200,200,337,1,492_a1a4d288d3bc486c83c3b6a835c42891989f5ba781633932298a7676_bw.jpg,3.406892,-0.44522,blackwhite,ervi22,2022-06-03_15h54.16.415,ratings,2022.1.1,Win32,60.12144532
1.963951882,4.9482,2.750468165,6.4257,0,201,201,53,1,112_b6a4ce721c2e42943d7d8b168751d74cd2f372b1cd4fed5a4404faec_circblurext.jpg,2.107036,0.505688,circularblurringext,ervi22,2022-06-03_15h54.16.415,ratings,2022.1.1,Win32,60.12144532
-2.680243446,144.0041,-2.324437917,146.0749,0,202,202,315,1,459_46e25de472bb056cb470716d30937415f7344bfc4354d6eb710d8c9f_blur.jpg,0.03174604,0.0,blurring,ervi22,2022-06-03_15h54.16.415,ratings,2022.1.1,Win32,60.12144532
2.450842982,1.8353,3.125,2.8875,0,203,203,189,1,369_c99797771115d7627d4abe3415f814497288f91a7be1a04c17c776b9_blur.jpg,3.619824,-0.174216,blurring,ervi22,2022-06-03_15h54.16.415,ratings,2022.1.1,Win32,60.12144532
-2.137171999,8.9669,-2.783239558,10.1691,0,204,204,487,1,818_877aae033c31e3bbca4486321a5307f87cf53c576c546462d3daf194_bw.jpg,-1.277584,0.619436,blackwhite,ervi22,2022-06-03_15h54.16.415,ratings,2022.1.1,Win32,60.12144532
-0.283239129,1.6843,0.709269377,3.9767,0,205,205,296,1,449_9c1e990a3480e5b51430fe76b0188e69ba2468fd6a866b88b2d0dd75_edges.jpg,0.095238,0.03174604,edges,ervi22,2022-06-03_15h54.16.415,ratings,2022.1.1,Win32,60.12144532
1.551966006,1.4262,1.767322097,2.1862,0,206,206,467,1,736_bb85db1bcda8eb34299aa5791ac65a0a7c343266eb2d6e6e328ec0e1_circblurext.jpg,3.650792,-0.03174604,circularblurringext,ervi22,2022-06-03_15h54.16.415,ratings,2022.1.1,Win32,60.12144532
-2.361891243,2.6392,1.392790262,4.677,0,207,207,102,1,284_cdcbd54fc995081ac95c8b2c37a19cebb341f61a8eb268cee1623492_orig.jpg,-1.015872,2.095236,original,ervi22,2022-06-03_15h54.16.415,ratings,2022.1.1,Win32,60.12144532
-2.464887355,3.1514,-0.236422649,8.223,0,208,208,364,1,508_a7a9519cdc7aad6844030f4e6cd96cffd1b9c49b71e20ea52789bda2_circblurint.jpg,-3.000388,-1.29694,circularblurringint,ervi22,2022-06-03_15h54.16.415,ratings,2022.1.1,Win32,60.12144532
0.587547674,2.1344,1.242978385,3.2486,0,209,209,485,1,759_95e1c46ed9a337414d5c8eada8fa8b9632e18751f5ce6ed587806e91_circblurext.jpg,2.126984,0.0,circularblurringext,ervi22,2022-06-03_15h54.16.415,ratings,2022.1.1,Win32,60.12144532
1.345973783,2.1994,2.535112074,3.2314,0,210,210,34,1,60_ad52063167538de24f94d7dfd04808cb94cf8f426c40871d2f126505_circblurint.jpg,2.158732,0.0,circularblurringint,ervi22,2022-06-03_15h54.16.415,ratings,2022.1.1,Win32,60.12144532
2.675561512,1.4199,3.237359265,2.6495,0,211,211,181,1,369_98db62a1bdabfd1bc551180da6658005b461585cd21614633cf76470_bw.jpg,2.190476,-0.03174604,blackwhite,ervi22,2022-06-03_15h54.16.415,ratings,2022.1.1,Win32,60.12144532
0.390917889,1.8013,1.645598965,2.7521,0,212,212,541,1,1005_b980c0747d20935bc63cc27a9e05ce2ff5bae98f859872ec48edd7f5_bw.jpg,3.428572,-0.476192,blackwhite,ervi22,2022-06-03_15h54.16.415,ratings,2022.1.1,Win32,60.12144532
-1.725186837,4.2441,-1.612827572,5.4287,0,213,213,376,1,620_9674719009d75dcfeaed7f15932c43e1fd1af5e25d47b8aadd61efe2_circblurint.jpg,-0.561364,1.142084,circularblurringint,ervi22,2022-06-03_15h54.16.415,ratings,2022.1.1,Win32,60.12144532
0.709269377,3.2539,1.392790262,4.4335,0,214,214,293,1,442_7449d79dae5d652af9b2429872cabdef938646ba024db2f431b3b28d_circblurext.jpg,1.619048,0.126984,circularblurringext,ervi22,2022-06-03_15h54.16.415,ratings,2022.1.1,Win32,60.12144532
-0.526685393,3.6605,2.37593633,5.1287,0,215,215,70,1,172_c641c6c56ca6b594b773084e1363c852abdb65f988d7ff802ee503f2_circblurint.jpg,0.379572,0.01725328,circularblurringint,ervi22,2022-06-03_15h54.16.415,ratings,2022.1.1,Win32,60.12144532
-0.414326128,1.4396,2.750468165,2.3499,0,216,216,67,1,172_c641c6c56ca6b594b773084e1363c852abdb65f988d7ff802ee503f2_bw.jpg,0.379572,0.01725328,blackwhite,ervi22,2022-06-03_15h54.16.415,ratings,2022.1.1,Win32,60.12144532
-2.361891243,4.5981,0.493914715,8.4164,0,217,217,126,1,349_18d92ef5c21ca70a3dd237aad251594e1688bbe01d8cff37b89c46b8_orig.jpg,-2.74874,-1.258228,original,ervi22,2022-06-03_15h54.16.415,ratings,2022.1.1,Win32,60.12144532
0.503277154,1.7165,2.1512178,4.9889,0,218,218,232,1,407_578d31d32e806706dde2563213f130b90e621abfed0e47ecabd85d27_circblurint.jpg,3.5873,-0.444444,circularblurringint,ervi22,2022-06-03_15h54.16.415,ratings,2022.1.1,Win32,60.12144532
-0.554775567,1.9337,1.495787088,5.6546,0,219,219,438,1,700_59cb565f134f1afd066d7b6d936c6511b7cb76de0e9cbb5ce15124ad_orig.jpg,0.0,0.0,original,ervi22,2022-06-03_15h54.16.415,ratings,2022.1.1,Win32,60.12144532
0.737359551,3.2959,2.310393544,4.2608,0,220,220,71,1,172_c641c6c56ca6b594b773084e1363c852abdb65f988d7ff802ee503f2_circblurext.jpg,0.379572,0.01725328,circularblurringext,ervi22,2022-06-03_15h54.16.415,ratings,2022.1.1,Win32,60.12144532
2.338483718,3.2482,3.274813306,4.3485,0,221,221,550,1,1010_06d15f44b979c086561137000ec070ba4cd479856f92840a7850b2bf_circblurint.jpg,0.189786,-0.189786,circularblurringint,ervi22,2022-06-03_15h54.16.415,ratings,2022.1.1,Win32,60.12144532
-0.339419476,2.698,1.439606742,4.8302,0,222,222,290,1,442_7449d79dae5d652af9b2429872cabdef938646ba024db2f431b3b28d_edges.jpg,1.619048,0.126984,edges,ervi22,2022-06-03_15h54.16.415,ratings,2022.1.1,Win32,60.12144532
-0.582864311,1.8693,-0.45177874,2.7162,0,223,223,428,1,694_7a14b8ab7c564dcb0f628c4de7f6cb54e4c5f6601f774bf167641c37_edges.jpg,1.819588,0.116144,edges,ervi22,2022-06-03_15h54.16.415,ratings,2022.1.1,Win32,60.12144532
0.540731194,5.3902,1.84222875,6.2438,0,224,224,427,1,694_7a14b8ab7c564dcb0f628c4de7f6cb54e4c5f6601f774bf167641c37_bw.jpg,1.819588,0.116144,blackwhite,ervi22,2022-06-03_15h54.16.415,ratings,2022.1.1,Win32,60.12144532
-1.53792092,12.857,0.78417603,17.5225,0,225,225,591,1,1228_557412d34d6a70b7c5d222e030aa485b351a4574e8ba1a3112d1d13d_blur.jpg,2.137444,0.703464,blurring,ervi22,2022-06-03_15h54.16.415,ratings,2022.1.1,Win32,60.12144532
0.596910112,1.7584,2.366573891,4.5319,0,226,226,463,1,736_bb85db1bcda8eb34299aa5791ac65a0a7c343266eb2d6e6e328ec0e1_bw.jpg,3.650792,-0.03174604,blackwhite,ervi22,2022-06-03_15h54.16.415,ratings,2022.1.1,Win32,60.12144532
-0.386235955,6.8665,2.422752809,10.0834,0,227,227,586,1,1225_59c67a821456f2cce3e5acf66d7f00076bd02caffc984c1eb0df794e_circblurint.jpg,-0.444444,3.809524,circularblurringint,ervi22,2022-06-03_15h54.16.415,ratings,2022.1.1,Win32,60.12144532
1.345973783,1.9696,2.572566115,7.7839,0,228,228,504,1,855_66d893451dfd1e7615132071c6c8a82b02dc2b37781cd89400883b26_orig.jpg,2.69484,0.2143624,original,ervi22,2022-06-03_15h54.16.415,ratings,2022.1.1,Win32,60.12144532
-2.614699946,7.0956,-1.285112217,9.0567,0,229,229,538,1,986_a77edb21e78bc3a6aa7406517824596b3496ad6c657b6befb84cf370_circblurint.jpg,-3.906316,-0.60496,circularblurringint,ervi22,2022-06-03_15h54.16.415,ratings,2022.1.1,Win32,60.12144532
-1.228932584,2.0969,-0.358145782,2.9536,0,230,230,371,1,616_05a637f5281666f53d4e2ef69351485fc21d629b37ee2006b2076eb6_circblurext.jpg,-2.380952,-0.832364,circularblurringext,ervi22,2022-06-03_15h54.16.415,ratings,2022.1.1,Win32,60.12144532
-0.442414873,4.5695,-0.582864311,5.3159,0,231,231,78,1,242_85283f6935a89812ab229dcad9ba184529c9242ac3106d768ecf3ab3_orig.jpg,2.14918,-0.2949852,original,ervi22,2022-06-03_15h54.16.415,ratings,2022.1.1,Win32,60.12144532
0.465824542,2.0852,2.0201308,3.8677,0,232,232,469,1,741_2b218fb015e3da83db73cacdb52e61e0c2534c1fe255bb1c5c74d47f_bw.jpg,3.140096,0.448584,blackwhite,ervi22,2022-06-03_15h54.16.415,ratings,2022.1.1,Win32,60.12144532
-0.330055608,1.6927,-0.348781914,3.1555,0,233,233,254,1,416_5eb54976bb41ce2a6d129ef985f792e716f010fb9b69b15f50f5d2db_edges.jpg,-2.58766,2.602972,edges,ervi22,2022-06-03_15h54.16.415,ratings,2022.1.1,Win32,60.12144532
-0.386235955,5.4447,1.673689139,7.1063,0,234,234,94,1,258_d26019382777d2159a974a7654923e71598135ce2cd710cea1f92865_circblurint.jpg,3.497684,-0.61104,circularblurringint,ervi22,2022-06-03_15h54.16.415,ratings,2022.1.1,Win32,60.12144532
0.437734368,2.4872,2.1512178,4.2296,0,235,235,577,1,1061_665178b9cb0bc869cc2e2b68def4838db04e66f9531098fb75875a09_bw.jpg,0.3492064,-0.3174604,blackwhite,ervi22,2022-06-03_15h54.16.415,ratings,2022.1.1,Win32,60.12144532
-0.376872088,6.3418,1.654962833,8.0558,0,236,236,464,1,736_bb85db1bcda8eb34299aa5791ac65a0a7c343266eb2d6e6e328ec0e1_edges.jpg,3.650792,-0.03174604,edges,ervi22,2022-06-03_15h54.16.415,ratings,2022.1.1,Win32,60.12144532
-0.367509649,2.1415,-0.301965435,2.9025,0,237,237,343,1,494_5c6c3b85a2734a43c24bfe337d42ffcc82b7347227804d01c784cef4_bw.jpg,0.03871468,0.0,blackwhite,ervi22,2022-06-03_15h54.16.415,ratings,2022.1.1,Win32,60.12144532
-0.573501873,3.6137,-0.236422649,9.6962,0,238,238,108,1,293_3dfdfafc0c6a54b2da7453750ac281f7718c0b3337b0a74c4563d6bd_orig.jpg,-2.574524,2.632596,original,ervi22,2022-06-03_15h54.16.415,ratings,2022.1.1,Win32,60.12144532
1.5332397,3.0647,2.872191297,6.5709,0,239,239,118,1,332_4d584229bdae2e1782f77f0e953e528f13c3dfa79b4b94736c0310fa_circblurint.jpg,3.157348,0.483092,circularblurringint,ervi22,2022-06-03_15h54.16.415,ratings,2022.1.1,Win32,60.12144532
-3.438670269,11.9327,-2.652153272,4.7722,0,240,240,323,1,460_e06b3af7ff2f2bfb5f9b6e3d5dc25b9aaa40b84823fac8fd934621bd_circblurext.jpg,-3.430992,-1.607468,circularblurringext,ervi22,2022-06-03_15h54.16.415,ratings,2022.1.1,Win32,60.12144532
-0.404962261,1.7354,0.971441948,5.2616,0,241,241,82,1,242_85283f6935a89812ab229dcad9ba184529c9242ac3106d768ecf3ab3_circblurint.jpg,2.14918,-0.2949852,circularblurringint,ervi22,2022-06-03_15h54.16.415,ratings,2022.1.1,Win32,60.12144532
1.224250651,3.3467,2.731741859,5.0782,0,242,242,154,1,355_00a76f54934d36566dd0e7b091b8aa6a56d8e6b32d349aa578a10b45_circblurint.jpg,2.910052,0.3439152,circularblurringint,ervi22,2022-06-03_15h54.16.415,ratings,2022.1.1,Win32,60.12144532
-0.442414873,4.4598,1.870318924,5.7077,0,243,243,368,1,616_05a637f5281666f53d4e2ef69351485fc21d629b37ee2006b2076eb6_edges.jpg,-2.380952,-0.832364,edges,ervi22,2022-06-03_15h54.16.415,ratings,2022.1.1,Win32,60.12144532
1.598782486,7.7956,2.787922206,10.5178,0,244,244,460,1,720_483c541c48959a597fcf44320941afaf8b7695105f90d65b5f6b30f2_circblurint.jpg,2.158732,-0.2539684,circularblurringint,ervi22,2022-06-03_15h54.16.415,ratings,2022.1.1,Win32,60.12144532
1.692415445,1.7011,2.6381089,2.7322,0,245,245,149,1,354_e46c3ec6fb00773f64f2bcd212385f253c389808fe724b7cf8611051_circblurext.jpg,2.018292,0.0,circularblurringext,ervi22,2022-06-03_15h54.16.415,ratings,2022.1.1,Win32,60.12144532
-0.489231353,1.6549,1.58005618,2.9136,0,246,246,93,1,258_d26019382777d2159a974a7654923e71598135ce2cd710cea1f92865_blur.jpg,3.497684,-0.61104,blurring,ervi22,2022-06-03_15h54.16.415,ratings,2022.1.1,Win32,60.12144532
-2.315074763,3.1152,-2.127808846,8.766,0,247,247,486,1,818_877aae033c31e3bbca4486321a5307f87cf53c576c546462d3daf194_orig.jpg,-1.277584,0.619436,original,ervi22,2022-06-03_15h54.16.415,ratings,2022.1.1,Win32,60.12144532
-2.33380107,1.7032,-2.240168111,3.2815,0,248,248,389,1,646_577760d718dab44c6f04d77408c5644a120065ce07a9503957d0850a_circblurext.jpg,-2.690668,2.61324,circularblurringext,ervi22,2022-06-03_15h54.16.415,ratings,2022.1.1,Win32,60.12144532
0.86844655,7.5369,2.497659462,8.4332,0,249,249,147,1,354_e46c3ec6fb00773f64f2bcd212385f253c389808fe724b7cf8611051_blur.jpg,2.018292,0.0,blurring,ervi22,2022-06-03_15h54.16.415,ratings,2022.1.1,Win32,60.12144532
-2.502340681,1.3961,1.486423221,2.6619,0,250,250,250,1,414_0187bdf7007109b487865b6a9d388997a6817acf052a6a7cdd5b39d9_circblurint.jpg,-2.786708,-1.133056,circularblurringint,ervi22,2022-06-03_15h54.16.415,ratings,2022.1.1,Win32,60.12144532
0.699906939,6.7189,2.46020685,7.6014,0,251,251,188,1,369_c99797771115d7627d4abe3415f814497288f91a7be1a04c17c776b9_edges.jpg,3.619824,-0.174216,edges,ervi22,2022-06-03_15h54.16.415,ratings,2022.1.1,Win32,60.12144532
-2.380617549,1.6301,-0.152153558,3.1369,0,252,252,537,1,986_a77edb21e78bc3a6aa7406517824596b3496ad6c657b6befb84cf370_blur.jpg,-3.906316,-0.60496,blurring,ervi22,2022-06-03_15h54.16.415,ratings,2022.1.1,Win32,60.12144532
1.280430997,3.9977,2.6381089,2.701,0,253,253,520,1,860_05c4e22518a30d3d2add458a8fc6488f87b9b02dd8e385ded939f025_circblurint.jpg,1.955092,0.3097172,circularblurringint,ervi22,2022-06-03_15h54.16.415,ratings,2022.1.1,Win32,60.12144532
1.392790262,4.4441,2.226124453,5.3259,0,254,254,2,1,13_771f4fcf0a212d25d6a78565e7f34cc5ddd823e7afbdc77ef063326e_edges.jpg,2.190476,0.0,edges,ervi22,2022-06-03_15h54.16.415,ratings,2022.1.1,Win32,60.12144532
2.656835206,1.4099,3.096909827,2.7867,0,255,255,339,1,492_a1a4d288d3bc486c83c3b6a835c42891989f5ba781633932298a7676_blur.jpg,3.406892,-0.44522,blurring,ervi22,2022-06-03_15h54.16.415,ratings,2022.1.1,Win32,60.12144532
1.205524345,3.2483,2.778558338,4.2109,0,256,256,583,1,1225_59c67a821456f2cce3e5acf66d7f00076bd02caffc984c1eb0df794e_bw.jpg,-0.444444,3.809524,blackwhite,ervi22,2022-06-03_15h54.16.415,ratings,2022.1.1,Win32,60.12144532
-3.316947137,7.6021,-2.708332905,13.483,0,257,257,384,1,646_577760d718dab44c6f04d77408c5644a120065ce07a9503957d0850a_orig.jpg,-2.690668,2.61324,original,ervi22,2022-06-03_15h54.16.415,ratings,2022.1.1,Win32,60.12144532
-2.502340681,2.4337,1.439606742,3.4304,0,258,258,152,1,355_00a76f54934d36566dd0e7b091b8aa6a56d8e6b32d349aa578a10b45_edges.jpg,2.910052,0.3439152,edges,ervi22,2022-06-03_15h54.16.415,ratings,2022.1.1,Win32,60.12144532
1.589420047,2.2675,2.488295594,3.1194,0,259,259,266,1,431_ab5a1dbbe9292ac7f74e276cdabcd372e2c1f852ff34bf7cc6646ef8_edges.jpg,3.102584,0.354334,edges,ervi22,2022-06-03_15h54.16.415,ratings,2022.1.1,Win32,60.12144532
1.205524345,1.7861,2.797284644,2.9484,0,260,260,265,1,431_ab5a1dbbe9292ac7f74e276cdabcd372e2c1f852ff34bf7cc6646ef8_bw.jpg,3.102584,0.354334,blackwhite,ervi22,2022-06-03_15h54.16.415,ratings,2022.1.1,Win32,60.12144532
-3.223314178,2.2187,-2.33380107,3.7012,0,261,261,417,1,692_7d7eaf20e6de8956f0fca7500ace97a8599aa8b605a7d690cdb28724_blur.jpg,-2.063492,-1.26984,blurring,ervi22,2022-06-03_15h54.16.415,ratings,2022.1.1,Win32,60.12144532
-0.695225005,1.339,-0.554775567,2.3639,0,262,262,345,1,494_5c6c3b85a2734a43c24bfe337d42ffcc82b7347227804d01c784cef4_blur.jpg,0.03871468,0.0,blurring,ervi22,2022-06-03_15h54.16.415,ratings,2022.1.1,Win32,60.12144532
0.634364153,4.5595,2.0201308,6.0094,0,263,263,338,1,492_a1a4d288d3bc486c83c3b6a835c42891989f5ba781633932298a7676_edges.jpg,3.406892,-0.44522,edges,ervi22,2022-06-03_15h54.16.415,ratings,2022.1.1,Win32,60.12144532
-2.389981416,2.0559,-3.363763616,3.7681,0,264,264,272,1,434_ba36d91204d7e578001f6a545d7501e65d209554def5a3c8b7583825_edges.jpg,-3.523808,1.428572,edges,ervi22,2022-06-03_15h54.16.415,ratings,2022.1.1,Win32,60.12144532
1.308521171,1.5772,2.722377991,3.5541,0,265,265,457,1,720_483c541c48959a597fcf44320941afaf8b7695105f90d65b5f6b30f2_bw.jpg,2.158732,-0.2539684,blackwhite,ervi22,2022-06-03_15h54.16.415,ratings,2022.1.1,Win32,60.12144532
-2.35252809,7.4048,-0.358145782,8.9034,0,266,266,139,1,353_44e285740cb41818482ac93fc5fbd72c18029444a1d7506c9fc053e7_bw.jpg,-3.232676,-0.87108,blackwhite,ervi22,2022-06-03_15h54.16.415,ratings,2022.1.1,Win32,60.12144532
-3.326311004,1.786,-2.801965864,2.9698,0,267,267,385,1,646_577760d718dab44c6f04d77408c5644a120065ce07a9503957d0850a_bw.jpg,-2.690668,2.61324,blackwhite,ervi22,2022-06-03_15h54.16.415,ratings,2022.1.1,Win32,60.12144532
-3.513576922,6.7687,1.729869485,7.8501,0,268,268,132,1,349_8809a67686d34844c915d7700e2ea72ad1c02ae232ae0d3cc0e458d4_orig.jpg,-3.619048,-0.2857144,original,ervi22,2022-06-03_15h54.16.415,ratings,2022.1.1,Win32,60.12144532
-2.792602711,1.9707,-2.28698459,6.9241,0,269,269,237,1,410_9633c4ff6e8888fcfca59a60ca86e9606d3e0736500a254101bdf295_blur.jpg,-0.3677892,2.981028,blurring,ervi22,2022-06-03_15h54.16.415,ratings,2022.1.1,Win32,60.12144532
-0.152153558,1.6844,1.130617692,4.1616,0,270,270,205,1,381_5935a9f9796adce2f1539af6c75bcdc0c80d847a2ce9b77cf59b7672_bw.jpg,-1.327432,-0.442476,blackwhite,ervi22,2022-06-03_15h54.16.415,ratings,2022.1.1,Win32,60.12144532
-0.264512823,1.5859,-0.386235955,3.0994,0,271,271,356,1,500_3b520c7f352afa1a9f8c07e56cc0588cdc04d25ff6e7b602b5e280cb_edges.jpg,-0.8328,3.11766,edges,ervi22,2022-06-03_15h54.16.415,ratings,2022.1.1,Win32,60.12144532
-2.85814621,1.7714,1.654962833,2.9378,0,272,272,87,1,243_beddb302dcb21071d88c8d2cab07002050d36b3001ef28f89389fa56_blur.jpg,-0.3450656,-0.2070392,blurring,ervi22,2022-06-03_15h54.16.415,ratings,2022.1.1,Win32,60.12144532
1.139981559,2.5871,1.795412271,3.4351,0,273,273,518,1,860_05c4e22518a30d3d2add458a8fc6488f87b9b02dd8e385ded939f025_edges.jpg,1.955092,0.3097172,edges,ervi22,2022-06-03_15h54.16.415,ratings,2022.1.1,Win32,60.12144532
0.306648797,4.4265,2.310393544,5.3774,0,274,274,474,1,748_e519892faa7c772a0afaf9eeff36cf0e411574027ab3d9aa4947a048_orig.jpg,-1.813112,3.307432,original,ervi22,2022-06-03_15h54.16.415,ratings,2022.1.1,Win32,60.12144532
1.729869485,3.8962,2.394662636,4.9265,0,275,275,521,1,860_05c4e22518a30d3d2add458a8fc6488f87b9b02dd8e385ded939f025_circblurext.jpg,1.955092,0.3097172,circularblurringext,ervi22,2022-06-03_15h54.16.415,ratings,2022.1.1,Win32,60.12144532
-0.264512823,2.4994,-0.367509649,3.4122,0,276,276,140,1,353_44e285740cb41818482ac93fc5fbd72c18029444a1d7506c9fc053e7_edges.jpg,-3.232676,-0.87108,edges,ervi22,2022-06-03_15h54.16.415,ratings,2022.1.1,Win32,60.12144532
-2.558520314,1.8516,1.495787088,3.0324,0,277,277,136,1,349_8809a67686d34844c915d7700e2ea72ad1c02ae232ae0d3cc0e458d4_circblurint.jpg,-3.619048,-0.2857144,circularblurringint,ervi22,2022-06-03_15h54.16.415,ratings,2022.1.1,Win32,60.12144532
-2.614699946,2.7817,1.757959659,4.8931,0,278,278,85,1,243_beddb302dcb21071d88c8d2cab07002050d36b3001ef28f89389fa56_bw.jpg,-0.3450656,-0.2070392,blackwhite,ervi22,2022-06-03_15h54.16.415,ratings,2022.1.1,Win32,60.12144532
2.6381089,2.0255,3.153090173,3.3145,0,279,279,27,1,59_8568373b727f29d67ba6ce4c360dd918c8b08b13495fca56bdda5e82_blur.jpg,2.064896,0.505688,blurring,ervi22,2022-06-03_15h54.16.415,ratings,2022.1.1,Win32,60.12144532
1.439606742,1.4369,1.879681362,2.4005,0,280,280,121,1,347_27f0e47c2722605b950ccf9fa900f78271e4c3c874064ab5dacac160_bw.jpg,1.838948,0.3097172,blackwhite,ervi22,2022-06-03_15h54.16.415,ratings,2022.1.1,Win32,60.12144532
0.933989336,1.8399,0.746723418,2.9703,0,281,281,351,1,498_305b74cdc4784d9d25e72724302e5402def70177ea31ae7e25fab66b_blur.jpg,3.04762,-0.444444,blurring,ervi22,2022-06-03_15h54.16.415,ratings,2022.1.1,Win32,60.12144532
0.456460674,1.2085,0.671816765,2.4011,0,282,282,545,1,1005_b980c0747d20935bc63cc27a9e05ce2ff5bae98f859872ec48edd7f5_circblurext.jpg,3.428572,-0.476192,circularblurringext,ervi22,2022-06-03_15h54.16.415,ratings,2022.1.1,Win32,60.12144532
1.420880436,3.9994,-0.236422649,7.6222,0,283,283,482,1,759_95e1c46ed9a337414d5c8eada8fa8b9632e18751f5ce6ed587806e91_edges.jpg,2.126984,0.0,edges,ervi22,2022-06-03_15h54.16.415,ratings,2022.1.1,Win32,60.12144532
1.692415445,3.4471,2.076311147,5.0095,0,284,284,408,1,687_e3b018945792a574962235c88c553b7c318c75eec2596478e8a7b877_orig.jpg,3.63918,-0.42586,original,ervi22,2022-06-03_15h54.16.415,ratings,2022.1.1,Win32,60.12144532
-0.301965435,1.8745,-0.358145782,2.6939,0,285,285,346,1,494_5c6c3b85a2734a43c24bfe337d42ffcc82b7347227804d01c784cef4_circblurint.jpg,0.03871468,0.0,circularblurringint,ervi22,2022-06-03_15h54.16.415,ratings,2022.1.1,Win32,60.12144532
-0.255148955,1.3204,-0.058520599,5.9904,0,286,286,204,1,381_5935a9f9796adce2f1539af6c75bcdc0c80d847a2ce9b77cf59b7672_orig.jpg,-1.327432,-0.442476,original,ervi22,2022-06-03_15h54.16.415,ratings,2022.1.1,Win32,60.12144532
1.233614518,1.4751,1.551966006,2.2566,0,287,287,63,1,156_08e8cf8f04630e9213e610580de73f51572d1d589878648700bae4dc_blur.jpg,2.222224,0.0,blurring,ervi22,2022-06-03_15h54.16.415,ratings,2022.1.1,Win32,60.12144532
1.477060782,1.4071,2.516385768,2.2167,0,288,288,81,1,242_85283f6935a89812ab229dcad9ba184529c9242ac3106d768ecf3ab3_blur.jpg,2.14918,-0.2949852,blurring,ervi22,2022-06-03_15h54.16.415,ratings,2022.1.1,Win32,60.12144532
-0.395598394,2.3183,-0.330055608,3.2881,0,289,289,450,1,716_2ab64478147184c4df720a52cf621875addc9007cb2967e4a9a88909_orig.jpg,2.428484,0.0,original,ervi22,2022-06-03_15h54.16.415,ratings,2022.1.1,Win32,60.12144532
0.756085857,1.9358,1.645598965,4.3501,0,290,290,461,1,720_483c541c48959a597fcf44320941afaf8b7695105f90d65b5f6b30f2_circblurext.jpg,2.158732,-0.2539684,circularblurringext,ervi22,2022-06-03_15h54.16.415,ratings,2022.1.1,Win32,60.12144532
0.456460674,1.4755,1.879681362,3.6013,0,291,291,585,1,1225_59c67a821456f2cce3e5acf66d7f00076bd02caffc984c1eb0df794e_blur.jpg,-0.444444,3.809524,blurring,ervi22,2022-06-03_15h54.16.415,ratings,2022.1.1,Win32,60.12144532
1.739231924,2.5666,2.347846156,4.2953,0,292,292,587,1,1225_59c67a821456f2cce3e5acf66d7f00076bd02caffc984c1eb0df794e_circblurext.jpg,-0.444444,3.809524,circularblurringext,ervi22,2022-06-03_15h54.16.415,ratings,2022.1.1,Win32,60.12144532
2.478933156,1.9666,2.282303371,3.0471,0,293,293,412,1,687_e3b018945792a574962235c88c553b7c318c75eec2596478e8a7b877_circblurint.jpg,3.63918,-0.42586,circularblurringint,ervi22,2022-06-03_15h54.16.415,ratings,2022.1.1,Win32,60.12144532
-1.809456643,2.3342,-0.395598394,3.5799,0,294,294,261,1,416_8a1f874e0057d67a4e6955865ba88b2d8ce2c8b4469589307687a723_blur.jpg,-1.753336,3.088264,blurring,ervi22,2022-06-03_15h54.16.415,ratings,2022.1.1,Win32,60.12144532
-2.586610487,2.1171,-1.669007205,3.2811,0,295,295,249,1,414_0187bdf7007109b487865b6a9d388997a6817acf052a6a7cdd5b39d9_blur.jpg,-2.786708,-1.133056,blurring,ervi22,2022-06-03_15h54.16.415,ratings,2022.1.1,Win32,60.12144532
-0.80758427,3.6619,-1.285112217,4.6933,0,296,296,223,1,403_57ac47f43882fc031a6067b1a388c0b2cbe8708dcbd2ff1019932eff_bw.jpg,-3.333332,-1.396824,blackwhite,ervi22,2022-06-03_15h54.16.415,ratings,2022.1.1,Win32,60.12144532
0.390917889,3.5126,1.205524345,4.6154,0,297,297,231,1,407_578d31d32e806706dde2563213f130b90e621abfed0e47ecabd85d27_blur.jpg,3.5873,-0.444444,blurring,ervi22,2022-06-03_15h54.16.415,ratings,2022.1.1,Win32,60.12144532
0.5594575,3.5494,1.374063956,5.5742,0,298,298,349,1,498_305b74cdc4784d9d25e72724302e5402def70177ea31ae7e25fab66b_bw.jpg,3.04762,-0.444444,blackwhite,ervi22,2022-06-03_15h54.16.415,ratings,2022.1.1,Win32,60.12144532
-2.174625325,1.5669,0.587547674,2.387,0,299,299,135,1,349_8809a67686d34844c915d7700e2ea72ad1c02ae232ae0d3cc0e458d4_blur.jpg,-3.619048,-0.2857144,blurring,ervi22,2022-06-03_15h54.16.415,ratings,2022.1.1,Win32,60.12144532
-0.49859522,2.2189,0.596910112,3.6856,0,300,300,110,1,293_3dfdfafc0c6a54b2da7453750ac281f7718c0b3337b0a74c4563d6bd_edges.jpg,-2.574524,2.632596,edges,ervi22,2022-06-03_15h54.16.415,ratings,2022.1.1,Win32,60.12144532
-0.610954485,3.2986,0.47518698,4.6587,0,301,301,316,1,459_46e25de472bb056cb470716d30937415f7344bfc4354d6eb710d8c9f_circblurint.jpg,0.03174604,0.0,circularblurringint,ervi22,2022-06-03_15h54.16.415,ratings,2022.1.1,Win32,60.12144532
2.254213197,3.1509,2.600656288,5.3582,0,302,302,28,1,59_8568373b727f29d67ba6ce4c360dd918c8b08b13495fca56bdda5e82_circblurint.jpg,2.064896,0.505688,circularblurringint,ervi22,2022-06-03_15h54.16.415,ratings,2022.1.1,Win32,60.12144532
-3.316947137,3.3508,-2.792602711,5.6817,0,303,303,242,1,411_adfd0d5782129756321ff671d0cfb712528504c66c863df11aabd1e7_edges.jpg,-3.392332,-1.369576,edges,ervi22,2022-06-03_15h54.16.415,ratings,2022.1.1,Win32,60.12144532
-2.371254396,3.8962,-1.266385196,4.6463,0,304,304,423,1,692_e3e3bf88684fbbcdb9849a4147f9e2fcd39b0f083554a829aca4e9fa_blur.jpg,-0.44522,3.135888,blurring,ervi22,2022-06-03_15h54.16.415,ratings,2022.1.1,Win32,60.12144532
-2.315074763,7.9203,-2.30571161,15.9015,0,305,305,324,1,468_8b69b13120daebadd8a4a3166e1419f2404395cba231307a4efa9fde_orig.jpg,2.031744,0.2539684,original,ervi22,2022-06-03_15h54.16.415,ratings,2022.1.1,Win32,60.12144532
1.374063956,1.5512,2.469569288,9.4311,0,306,306,148,1,354_e46c3ec6fb00773f64f2bcd212385f253c389808fe724b7cf8611051_circblurint.jpg,2.018292,0.0,circularblurringint,ervi22,2022-06-03_15h54.16.415,ratings,2022.1.1,Win32,60.12144532
-1.219568717,2.4384,-2.577247334,3.8635,0,307,307,424,1,692_e3e3bf88684fbbcdb9849a4147f9e2fcd39b0f083554a829aca4e9fa_circblurint.jpg,-0.44522,3.135888,circularblurringint,ervi22,2022-06-03_15h54.16.415,ratings,2022.1.1,Win32,60.12144532
-0.339419476,3.9797,-0.657770964,4.9412,0,308,308,435,1,694_f80f33613b268beffd6c044537cf3b44a84683d6e889bc37b8e9c34b_blur.jpg,-0.3785616,3.34728,blurring,ervi22,2022-06-03_15h54.16.415,ratings,2022.1.1,Win32,60.12144532
-1.285112217,1.5193,-1.210206278,3.0025,0,309,309,489,1,818_877aae033c31e3bbca4486321a5307f87cf53c576c546462d3daf194_blur.jpg,-1.277584,0.619436,blurring,ervi22,2022-06-03_15h54.16.415,ratings,2022.1.1,Win32,60.12144532
1.40215413,2.0507,2.188670412,3.6114,0,310,310,303,1,453_54f106fd1d4b65fa4aa347407127fc30d49f791e81aee3a0bbe44489_blur.jpg,2.222224,0.0,blurring,ervi22,2022-06-03_15h54.16.415,ratings,2022.1.1,Win32,60.12144532
-2.783239558,1.9849,-1.31320239,5.5747,0,311,311,496,1,824_b1d91cc824ce0d3d383d3147da88d3d6dbaf6be918bab79e3ec8f501_circblurint.jpg,-3.645176,-1.432784,circularblurringint,ervi22,2022-06-03_15h54.16.415,ratings,2022.1.1,Win32,60.12144532
0.362827715,2.6148,1.40215413,3.8279,0,312,312,426,1,694_7a14b8ab7c564dcb0f628c4de7f6cb54e4c5f6601f774bf167641c37_orig.jpg,1.819588,0.116144,original,ervi22,2022-06-03_15h54.16.415,ratings,2022.1.1,Win32,60.12144532
-0.386235955,1.7685,-0.367509649,4.1663,0,313,313,224,1,403_57ac47f43882fc031a6067b1a388c0b2cbe8708dcbd2ff1019932eff_edges.jpg,-3.333332,-1.396824,edges,ervi22,2022-06-03_15h54.16.415,ratings,2022.1.1,Win32,60.12144532
0.465824542,1.7516,1.589420047,4.2821,0,314,314,197,1,379_eeaa6d9bf5a4ef205dc48bc505cf3a7f24ea86e99af9b371e03602a7_circblurext.jpg,-0.3926308,2.88936,circularblurringext,ervi22,2022-06-03_15h54.16.415,ratings,2022.1.1,Win32,60.12144532
0.737359551,1.2107,2.301029677,2.2672,0,315,315,456,1,720_483c541c48959a597fcf44320941afaf8b7695105f90d65b5f6b30f2_orig.jpg,2.158732,-0.2539684,original,ervi22,2022-06-03_15h54.16.415,ratings,2022.1.1,Win32,60.12144532
0.437734368,3.9784,2.488295594,5.4448,0,316,316,432,1,694_f80f33613b268beffd6c044537cf3b44a84683d6e889bc37b8e9c34b_orig.jpg,-0.3785616,3.34728,original,ervi22,2022-06-03_15h54.16.415,ratings,2022.1.1,Win32,60.12144532
-1.547284787,4.1277,1.701779312,6.3963,0,317,317,193,1,379_eeaa6d9bf5a4ef205dc48bc505cf3a7f24ea86e99af9b371e03602a7_bw.jpg,-0.3926308,2.88936,blackwhite,ervi22,2022-06-03_15h54.16.415,ratings,2022.1.1,Win32,60.12144532
-2.624063813,1.801,-2.28698459,3.8002,0,318,318,399,1,683_a004ad18331da968da5debdd15e1447dd7748750af0bc6c57b844200_blur.jpg,-2.91956,2.466524,blurring,ervi22,2022-06-03_15h54.16.415,ratings,2022.1.1,Win32,60.12144532
0.091292706,1.7353,1.392790262,2.9482,0,319,319,99,1,267_792043debad81ce271cec5b3c3bd9d264efc13f362bec9c7a3f72fe7_blur.jpg,1.980616,0.2107036,blurring,ervi22,2022-06-03_15h54.16.415,ratings,2022.1.1,Win32,60.12144532
3.171816479,7.9391,3.218632959,4.5956,0,320,320,52,1,112_b6a4ce721c2e42943d7d8b168751d74cd2f372b1cd4fed5a4404faec_circblurint.jpg,2.107036,0.505688,circularblurringint,ervi22,2022-06-03_15h54.16.415,ratings,2022.1.1,Win32,60.12144532
-1.640917746,1.5358,1.196161906,4.7801,0,321,321,598,1,1239_cee00457f4cfb76a407b12fd5ad714d440a4614c1e5467ee16caf618_circblurint.jpg,-0.03174604,0.190476,circularblurringint,ervi22,2022-06-03_15h54.16.415,ratings,2022.1.1,Win32,60.12144532
0.259832318,1.4214,1.992042056,2.2698,0,322,322,465,1,736_bb85db1bcda8eb34299aa5791ac65a0a7c343266eb2d6e6e328ec0e1_blur.jpg,3.650792,-0.03174604,blurring,ervi22,2022-06-03_15h54.16.415,ratings,2022.1.1,Win32,60.12144532
-0.301965435,2.1503,-0.283239129,3.4011,0,323,323,380,1,640_0ddb4981a5f5842ed5b4f7ef941be53779189df5e718b1fc5475ad80_edges.jpg,2.571428,-1.873016,edges,ervi22,2022-06-03_15h54.16.415,ratings,2022.1.1,Win32,60.12144532
2.319757412,2.848,3.237359265,4.1996,0,324,324,395,1,663_aaf52107fe3a86392530d88b34e86f9d2b6820714cad98d1e3c2cb67_circblurext.jpg,2.58766,0.0918696,circularblurringext,ervi22,2022-06-03_15h54.16.415,ratings,2022.1.1,Win32,60.12144532
3.246723132,1.4537,3.330992224,2.2833,0,325,325,24,1,59_8568373b727f29d67ba6ce4c360dd918c8b08b13495fca56bdda5e82_orig.jpg,2.064896,0.505688,original,ervi22,2022-06-03_15h54.16.415,ratings,2022.1.1,Win32,60.12144532
0.512641021,3.966,0.306648797,5.1971,0,326,326,283,1,440_dc6413e2b65369ee2587f4d85621742fe4ca87392d0a8ad2ea7d94e3_bw.jpg,-3.016216,1.69404,blackwhite,ervi22,2022-06-03_15h54.16.415,ratings,2022.1.1,Win32,60.12144532
-3.251404352,1.7861,-2.137171999,3.9631,0,327,327,419,1,692_7d7eaf20e6de8956f0fca7500ace97a8599aa8b605a7d690cdb28724_circblurext.jpg,-2.063492,-1.26984,circularblurringext,ervi22,2022-06-03_15h54.16.415,ratings,2022.1.1,Win32,60.12144532
-3.260767505,1.8019,-2.380617549,3.2142,0,328,328,360,1,508_a7a9519cdc7aad6844030f4e6cd96cffd1b9c49b71e20ea52789bda2_orig.jpg,-3.000388,-1.29694,original,ervi22,2022-06-03_15h54.16.415,ratings,2022.1.1,Win32,60.12144532
3.424625182,1.7725,3.443352917,2.916,0,329,329,185,1,369_98db62a1bdabfd1bc551180da6658005b461585cd21614633cf76470_circblurext.jpg,2.190476,-0.03174604,circularblurringext,ervi22,2022-06-03_15h54.16.415,ratings,2022.1.1,Win32,60.12144532
1.673689139,5.2102,3.20927052,9.1023,0,330,330,42,1,92_5d20d78a8e57e628c6930676473a4e0a485e715841efd6286c660020_orig.jpg,2.126984,0.0,original,ervi22,2022-06-03_15h54.16.415,ratings,2022.1.1,Win32,60.12144532
0.634364153,4.9582,2.797284644,6.5745,0,331,331,475,1,748_e519892faa7c772a0afaf9eeff36cf0e411574027ab3d9aa4947a048_bw.jpg,-1.813112,3.307432,blackwhite,ervi22,2022-06-03_15h54.16.415,ratings,2022.1.1,Win32,60.12144532
-0.348781914,2.8659,-0.236422649,3.7693,0,332,332,554,1,1014_a5c212ca979d482cf94c2db7697aba75620391a64b030ab7ad2bbecf_edges.jpg,-3.174604,-1.374372,edges,ervi22,2022-06-03_15h54.16.415,ratings,2022.1.1,Win32,60.12144532
0.213015839,2.6992,2.244850759,3.9458,0,333,333,68,1,172_c641c6c56ca6b594b773084e1363c852abdb65f988d7ff802ee503f2_edges.jpg,0.379572,0.01725328,edges,ervi22,2022-06-03_15h54.16.415,ratings,2022.1.1,Win32,60.12144532
-3.541666381,2.1391,-2.249531978,3.5474,0,334,334,388,1,646_577760d718dab44c6f04d77408c5644a120065ce07a9503957d0850a_circblurint.jpg,-2.690668,2.61324,circularblurringint,ervi22,2022-06-03_15h54.16.415,ratings,2022.1.1,Win32,60.12144532
0.447098236,1.8206,1.392790262,4.0138,0,335,335,378,1,640_0ddb4981a5f5842ed5b4f7ef941be53779189df5e718b1fc5475ad80_orig.jpg,2.571428,-1.873016,original,ervi22,2022-06-03_15h54.16.415,ratings,2022.1.1,Win32,60.12144532
-0.479868914,1.7256,-0.442414873,3.6419,0,336,336,308,1,455_34a7d8167619d110206c369e3f7dce8a3f99db763a9d8e2b956501d3_edges.jpg,-2.526412,-0.3827896,edges,ervi22,2022-06-03_15h54.16.415,ratings,2022.1.1,Win32,60.12144532
0.550093633,2.4497,1.6643267,4.1294,0,337,337,291,1,442_7449d79dae5d652af9b2429872cabdef938646ba024db2f431b3b28d_blur.jpg,1.619048,0.126984,blurring,ervi22,2022-06-03_15h54.16.415,ratings,2022.1.1,Win32,60.12144532
1.139981559,2.6308,2.516385768,4.3314,0,338,338,589,1,1228_557412d34d6a70b7c5d222e030aa485b351a4574e8ba1a3112d1d13d_bw.jpg,2.137444,0.703464,blackwhite,ervi22,2022-06-03_15h54.16.415,ratings,2022.1.1,Win32,60.12144532
1.327247477,4.7432,3.20927052,7.0082,0,339,339,11,1,28_6318543b74eeb646a1735477ebc023fdc9ac3849bc0db1957c272a26_circblurext.jpg,2.811244,-0.74584,circularblurringext,ervi22,2022-06-03_15h54.16.415,ratings,2022.1.1,Win32,60.12144532
-2.30571161,2.591,-2.427434028,3.4338,0,340,340,420,1,692_e3e3bf88684fbbcdb9849a4147f9e2fcd39b0f083554a829aca4e9fa_orig.jpg,-0.44522,3.135888,original,ervi22,2022-06-03_15h54.16.415,ratings,2022.1.1,Win32,60.12144532
-0.816946708,1.3861,-0.573501873,2.8515,0,341,341,557,1,1014_a5c212ca979d482cf94c2db7697aba75620391a64b030ab7ad2bbecf_circblurext.jpg,-3.174604,-1.374372,circularblurringext,ervi22,2022-06-03_15h54.16.415,ratings,2022.1.1,Win32,60.12144532
-0.32069317,2.9984,-0.414326128,4.1739,0,342,342,530,1,915_dc9fd40a3b5d64a180833a7bac86e7556c24f681f473fe255e41f936_edges.jpg,-3.09294,-0.918696,edges,ervi22,2022-06-03_15h54.16.415,ratings,2022.1.1,Win32,60.12144532
-2.33380107,3.6787,1.757959659,5.3088,0,343,343,312,1,459_46e25de472bb056cb470716d30937415f7344bfc4354d6eb710d8c9f_orig.jpg,0.03174604,0.0,original,ervi22,2022-06-03_15h54.16.415,ratings,2022.1.1,Win32,60.12144532
1.523877262,2.1233,2.581928553,3.365,0,344,344,30,1,60_ad52063167538de24f94d7dfd04808cb94cf8f426c40871d2f126505_orig.jpg,2.158732,0.0,original,ervi22,2022-06-03_15h54.16.415,ratings,2022.1.1,Win32,60.12144532
-0.526685393,3.7161,-0.648408525,4.611,0,345,345,560,1,1022_cf035e583d41a856836f8b0ae314ecbe79dffd9e40ef6a08cc26028f_edges.jpg,-0.2516452,3.05846,edges,ervi22,2022-06-03_15h54.16.415,ratings,2022.1.1,Win32,60.12144532
0.503277154,2.7498,2.207396718,3.9624,0,346,346,480,1,759_95e1c46ed9a337414d5c8eada8fa8b9632e18751f5ce6ed587806e91_orig.jpg,2.126984,0.0,original,ervi22,2022-06-03_15h54.16.415,ratings,2022.1.1,Win32,60.12144532
-1.406835349,2.2223,1.374063956,3.7119,0,347,347,105,1,284_cdcbd54fc995081ac95c8b2c37a19cebb341f61a8eb268cee1623492_blur.jpg,-1.015872,2.095236,blurring,ervi22,2022-06-03_15h54.16.415,ratings,2022.1.1,Win32,60.12144532
-3.504213055,2.0051,-2.483614375,5.6234,0,348,348,137,1,349_8809a67686d34844c915d7700e2ea72ad1c02ae232ae0d3cc0e458d4_circblurext.jpg,-3.619048,-0.2857144,circularblurringext,ervi22,2022-06-03_15h54.16.415,ratings,2022.1.1,Win32,60.12144532
-2.165262172,1.5193,-1.53792092,2.6493,0,349,349,334,1,482_a1cd28915c5044c018195ab0fff10dcc95e385246b045a7cd4463ff7_circblurint.jpg,-3.361852,-1.555612,circularblurringint,ervi22,2022-06-03_15h54.16.415,ratings,2022.1.1,Win32,60.12144532
-0.414326128,2.6159,-0.442414873,3.7457,0,350,350,555,1,1014_a5c212ca979d482cf94c2db7697aba75620391a64b030ab7ad2bbecf_blur.jpg,-3.174604,-1.374372,blurring,ervi22,2022-06-03_15h54.16.415,ratings,2022.1.1,Win32,60.12144532
1.35533765,1.9325,1.692415445,3.08,0,351,351,526,1,877_cab3efed0c9ff4552037df6c1ea4ea9713f915c94592a14dbf2799da_circblurint.jpg,3.174604,0.3174604,circularblurringint,ervi22,2022-06-03_15h54.16.415,ratings,2022.1.1,Win32,60.12144532
-2.661516425,2.7494,-2.052902193,7.818,0,352,352,234,1,410_9633c4ff6e8888fcfca59a60ca86e9606d3e0736500a254101bdf295_orig.jpg,-0.3677892,2.981028,original,ervi22,2022-06-03_15h54.16.415,ratings,2022.1.1,Win32,60.12144532
2.1512178,2.5669,3.265449438,3.5972,0,353,353,114,1,332_4d584229bdae2e1782f77f0e953e528f13c3dfa79b4b94736c0310fa_orig.jpg,3.157348,0.483092,original,ervi22,2022-06-03_15h54.16.415,ratings,2022.1.1,Win32,60.12144532
-3.401216943,9.9668,0.390917889,19.724,0,354,354,84,1,243_beddb302dcb21071d88c8d2cab07002050d36b3001ef28f89389fa56_orig.jpg,-0.3450656,-0.2070392,original,ervi22,2022-06-03_15h54.16.415,ratings,2022.1.1,Win32,60.12144532
-2.28698459,2.3326,-2.380617549,6.2583,0,355,355,259,1,416_8a1f874e0057d67a4e6955865ba88b2d8ce2c8b4469589307687a723_bw.jpg,-1.753336,3.088264,blackwhite,ervi22,2022-06-03_15h54.16.415,ratings,2022.1.1,Win32,60.12144532
1.364700089,1.5357,2.132491494,2.9818,0,356,356,178,1,368_6507b94d7d0199f14efd3706db30c9c44b96085f84e9cc7792e3e0ae_circblurint.jpg,1.959544,0.400336,circularblurringint,ervi22,2022-06-03_15h54.16.415,ratings,2022.1.1,Win32,60.12144532
-2.446161049,3.1631,-2.717696772,4.8931,0,357,357,362,1,508_a7a9519cdc7aad6844030f4e6cd96cffd1b9c49b71e20ea52789bda2_edges.jpg,-3.000388,-1.29694,edges,ervi22,2022-06-03_15h54.16.415,ratings,2022.1.1,Win32,60.12144532
-2.258895131,2.0849,0.78417603,3.5795,0,358,358,129,1,349_18d92ef5c21ca70a3dd237aad251594e1688bbe01d8cff37b89c46b8_blur.jpg,-2.74874,-1.258228,blurring,ervi22,2022-06-03_15h54.16.415,ratings,2022.1.1,Win32,60.12144532
-2.268258284,3.5683,-2.745786231,6.6366,0,359,359,320,1,460_e06b3af7ff2f2bfb5f9b6e3d5dc25b9aaa40b84823fac8fd934621bd_edges.jpg,-3.430992,-1.607468,edges,ervi22,2022-06-03_15h54.16.415,ratings,2022.1.1,Win32,60.12144532
1.561329874,1.9362,2.619382594,3.0828,0,360,360,75,1,236_f645730e1eb06155418c9a571329cc7fa320654fcaaedf1048b5cc11_blur.jpg,2.253968,0.0,blurring,ervi22,2022-06-03_15h54.16.415,ratings,2022.1.1,Win32,60.12144532
-3.326311004,2.0445,1.392790262,3.5257,0,361,361,493,1,824_b1d91cc824ce0d3d383d3147da88d3d6dbaf6be918bab79e3ec8f501_bw.jpg,-3.645176,-1.432784,blackwhite,ervi22,2022-06-03_15h54.16.415,ratings,2022.1.1,Win32,60.12144532
1.430244303,7.7592,2.198034279,6.8576,0,362,362,524,1,877_cab3efed0c9ff4552037df6c1ea4ea9713f915c94592a14dbf2799da_edges.jpg,3.174604,0.3174604,edges,ervi22,2022-06-03_15h54.16.415,ratings,2022.1.1,Win32,60.12144532
-0.27387669,2.6659,-0.423688567,3.5134,0,363,363,451,1,716_2ab64478147184c4df720a52cf621875addc9007cb2967e4a9a88909_bw.jpg,2.428484,0.0,blackwhite,ervi22,2022-06-03_15h54.16.415,ratings,2022.1.1,Win32,60.12144532
-3.185861566,2.3917,-2.315074763,5.9726,0,364,364,495,1,824_b1d91cc824ce0d3d383d3147da88d3d6dbaf6be918bab79e3ec8f501_blur.jpg,-3.645176,-1.432784,blurring,ervi22,2022-06-03_15h54.16.415,ratings,2022.1.1,Win32,60.12144532
2.169944106,1.5073,3.199906653,5.0595,0,365,365,394,1,663_aaf52107fe3a86392530d88b34e86f9d2b6820714cad98d1e3c2cb67_circblurint.jpg,2.58766,0.0918696,circularblurringint,ervi22,2022-06-03_15h54.16.415,ratings,2022.1.1,Win32,60.12144532
-3.869381737,1.9869,-0.311329302,17.1259,0,366,366,575,1,1039_d64da8480fc6e94dcdc513237d600570ae0b9fe48795ac6a8b2d29a7_circblurext.jpg,-2.507936,-1.142856,circularblurringext,ervi22,2022-06-03_15h54.16.415,ratings,2022.1.1,Win32,60.12144532
-3.373127484,1.6069,-0.442414873,2.5994,0,367,367,239,1,410_9633c4ff6e8888fcfca59a60ca86e9606d3e0736500a254101bdf295_circblurext.jpg,-0.3677892,2.981028,circularblurringext,ervi22,2022-06-03_15h54.16.415,ratings,2022.1.1,Win32,60.12144532
0.278558624,4.3795,0.737359551,5.7065,0,368,368,211,1,394_8e3a0cb945144d53bd1ace04b6256237ed9dcbbd9cb83f8a4886b0e6_bw.jpg,-2.593884,2.651956,blackwhite,ervi22,2022-06-03_15h54.16.415,ratings,2022.1.1,Win32,60.12144532
1.40215413,1.3863,2.619382594,2.5229,0,369,369,459,1,720_483c541c48959a597fcf44320941afaf8b7695105f90d65b5f6b30f2_blur.jpg,2.158732,-0.2539684,blurring,ervi22,2022-06-03_15h54.16.415,ratings,2022.1.1,Win32,60.12144532
1.617510221,1.6363,2.141853933,2.5005,0,370,370,519,1,860_05c4e22518a30d3d2add458a8fc6488f87b9b02dd8e385ded939f025_blur.jpg,1.955092,0.3097172,blurring,ervi22,2022-06-03_15h54.16.415,ratings,2022.1.1,Win32,60.12144532
-2.436797896,4.2935,-1.257022758,6.56,0,371,371,552,1,1014_a5c212ca979d482cf94c2db7697aba75620391a64b030ab7ad2bbecf_orig.jpg,-3.174604,-1.374372,original,ervi22,2022-06-03_15h54.16.415,ratings,2022.1.1,Win32,60.12144532
0.933989336,2.0061,1.729869485,3.2641,0,372,372,567,1,1037_e2eb929a6de79a63ce6cfe5321fcb74a203b134e4094932d90b01d99_blur.jpg,2.651956,0.0,blurring,ervi22,2022-06-03_15h54.16.415,ratings,2022.1.1,Win32,60.12144532
-0.582864311,6.6416,-0.507959087,7.3856,0,373,373,206,1,381_5935a9f9796adce2f1539af6c75bcdc0c80d847a2ce9b77cf59b7672_edges.jpg,-1.327432,-0.442476,edges,ervi22,2022-06-03_15h54.16.415,ratings,2022.1.1,Win32,60.12144532
1.149345427,3.0015,2.029494668,4.4779,0,374,374,252,1,416_5eb54976bb41ce2a6d129ef985f792e716f010fb9b69b15f50f5d2db_orig.jpg,-2.58766,2.602972,original,ervi22,2022-06-03_15h54.16.415,ratings,2022.1.1,Win32,60.12144532
0.765449724,1.7257,1.392790262,2.982,0,375,375,111,1,293_3dfdfafc0c6a54b2da7453750ac281f7718c0b3337b0a74c4563d6bd_blur.jpg,-2.574524,2.632596,blurring,ervi22,2022-06-03_15h54.16.415,ratings,2022.1.1,Win32,60.12144532
1.383427824,1.54,1.495787088,2.4669,0,376,376,146,1,354_e46c3ec6fb00773f64f2bcd212385f253c389808fe724b7cf8611051_edges.jpg,2.018292,0.0,edges,ervi22,2022-06-03_15h54.16.415,ratings,2022.1.1,Win32,60.12144532
-2.315074763,2.085,-0.386235955,3.3793,0,377,377,553,1,1014_a5c212ca979d482cf94c2db7697aba75620391a64b030ab7ad2bbecf_bw.jpg,-3.174604,-1.374372,blackwhite,ervi22,2022-06-03_15h54.16.415,ratings,2022.1.1,Win32,60.12144532
0.456460674,1.4077,1.345973783,2.2176,0,378,378,568,1,1037_e2eb929a6de79a63ce6cfe5321fcb74a203b134e4094932d90b01d99_circblurint.jpg,2.651956,0.0,circularblurringint,ervi22,2022-06-03_15h54.16.415,ratings,2022.1.1,Win32,60.12144532
1.299157303,1.3702,1.589420047,2.4817,0,379,379,525,1,877_cab3efed0c9ff4552037df6c1ea4ea9713f915c94592a14dbf2799da_blur.jpg,3.174604,0.3174604,blurring,ervi22,2022-06-03_15h54.16.415,ratings,2022.1.1,Win32,60.12144532
-2.727059925,20.7143,-0.358145782,22.3244,0,380,380,488,1,818_877aae033c31e3bbca4486321a5307f87cf53c576c546462d3daf194_edges.jpg,-1.277584,0.619436,edges,ervi22,2022-06-03_15h54.16.415,ratings,2022.1.1,Win32,60.12144532
1.477060782,1.9848,1.561329874,2.8319,0,381,381,33,1,60_ad52063167538de24f94d7dfd04808cb94cf8f426c40871d2f126505_blur.jpg,2.158732,0.0,blurring,ervi22,2022-06-03_15h54.16.415,ratings,2022.1.1,Win32,60.12144532
2.394662636,1.4866,3.190542785,2.2187,0,382,382,501,1,854_081a8409e4d6d10923b2dedcc16a3fca405fcd602e55a20d84cac69d_blur.jpg,3.088264,1.21538,blurring,ervi22,2022-06-03_15h54.16.415,ratings,2022.1.1,Win32,60.12144532
-1.547284787,3.1001,1.289794865,4.3268,0,383,383,595,1,1239_cee00457f4cfb76a407b12fd5ad714d440a4614c1e5467ee16caf618_bw.jpg,-0.03174604,0.190476,blackwhite,ervi22,2022-06-03_15h54.16.415,ratings,2022.1.1,Win32,60.12144532
1.299157303,2.5161,2.86282743,3.7138,0,384,384,6,1,28_6318543b74eeb646a1735477ebc023fdc9ac3849bc0db1957c272a26_orig.jpg,2.811244,-0.74584,original,ervi22,2022-06-03_15h54.16.415,ratings,2022.1.1,Win32,60.12144532
1.757959659,1.4531,2.591292421,2.559,0,385,385,123,1,347_27f0e47c2722605b950ccf9fa900f78271e4c3c874064ab5dacac160_blur.jpg,1.838948,0.3097172,blurring,ervi22,2022-06-03_15h54.16.415,ratings,2022.1.1,Win32,60.12144532
1.083801212,3.945,1.224250651,5.9446,0,386,386,282,1,440_dc6413e2b65369ee2587f4d85621742fe4ca87392d0a8ad2ea7d94e3_orig.jpg,-3.016216,1.69404,original,ervi22,2022-06-03_15h54.16.415,ratings,2022.1.1,Win32,60.12144532
-0.423688567,1.5895,0.512641021,5.5567,0,387,387,326,1,468_8b69b13120daebadd8a4a3166e1419f2404395cba231307a4efa9fde_edges.jpg,2.031744,0.2539684,edges,ervi22,2022-06-03_15h54.16.415,ratings,2022.1.1,Win32,60.12144532
1.317883609,3.031,2.41339037,4.1155,0,388,388,433,1,694_f80f33613b268beffd6c044537cf3b44a84683d6e889bc37b8e9c34b_bw.jpg,-0.3785616,3.34728,blackwhite,ervi22,2022-06-03_15h54.16.415,ratings,2022.1.1,Win32,60.12144532
-2.277621437,1.6739,-2.521066987,3.7301,0,389,389,490,1,818_877aae033c31e3bbca4486321a5307f87cf53c576c546462d3daf194_circblurint.jpg,-1.277584,0.619436,circularblurringint,ervi22,2022-06-03_15h54.16.415,ratings,2022.1.1,Win32,60.12144532
1.542603568,1.702,2.385300197,2.7401,0,390,390,186,1,369_c99797771115d7627d4abe3415f814497288f91a7be1a04c17c776b9_orig.jpg,3.619824,-0.174216,original,ervi22,2022-06-03_15h54.16.415,ratings,2022.1.1,Win32,60.12144532
-2.848782343,1.6901,-0.311329302,2.6672,0,391,391,401,1,683_a004ad18331da968da5debdd15e1447dd7748750af0bc6c57b844200_circblurext.jpg,-2.91956,2.466524,circularblurringext,ervi22,2022-06-03_15h54.16.415,ratings,2022.1.1,Win32,60.12144532
1.214888212,1.3536,2.937734082,2.8007,0,392,392,10,1,28_6318543b74eeb646a1735477ebc023fdc9ac3849bc0db1957c272a26_circblurint.jpg,2.811244,-0.74584,circularblurringint,ervi22,2022-06-03_15h54.16.415,ratings,2022.1.1,Win32,60.12144532
-0.170879864,6.4464,1.158707865,8.0448,0,393,393,92,1,258_d26019382777d2159a974a7654923e71598135ce2cd710cea1f92865_edges.jpg,3.497684,-0.61104,edges,ervi22,2022-06-03_15h54.16.415,ratings,2022.1.1,Win32,60.12144532
-2.886235669,1.7388,-2.118445693,3.3682,0,394,394,156,1,358_157f8ac929713531a15b1ecf115e7b659cb90e83d675251e368d165f_orig.jpg,-3.777776,-0.571428,original,ervi22,2022-06-03_15h54.16.415,ratings,2022.1.1,Win32,60.12144532
-3.232678045,1.5191,-2.296348457,2.4859,0,395,395,571,1,1039_d64da8480fc6e94dcdc513237d600570ae0b9fe48795ac6a8b2d29a7_bw.jpg,-2.507936,-1.142856,blackwhite,ervi22,2022-06-03_15h54.16.415,ratings,2022.1.1,Win32,60.12144532
1.589420047,1.8555,3.003276868,3.0312,0,396,396,39,1,82_43f4d5aec7c2e5bd495473f6708a0f2d47c9fe34e1fe9436646cb036_blur.jpg,2.022756,0.505688,blurring,ervi22,2022-06-03_15h54.16.415,ratings,2022.1.1,Win32,60.12144532
-1.584737399,2.3213,-0.536047832,3.9113,0,397,397,369,1,616_05a637f5281666f53d4e2ef69351485fc21d629b37ee2006b2076eb6_blur.jpg,-2.380952,-0.832364,blurring,ervi22,2022-06-03_15h54.16.415,ratings,2022.1.1,Win32,60.12144532
-2.801965864,1.5859,1.09316508,3.7824,0,398,398,162,1,361_b5541309527dc3c2422f45a95ebb0ed32005e6fe10d0489a1ff1fbdc_orig.jpg,-3.987612,-0.2516452,original,ervi22,2022-06-03_15h54.16.415,ratings,2022.1.1,Win32,60.12144532
-0.423688567,7.561,-0.367509649,5.4492,0,399,399,168,1,365_45a719cabbc9aa308c4fcb30d529489c6966ac4073874af84f665c61_orig.jpg,2.507936,-1.968252,original,ervi22,2022-06-03_15h54.16.415,ratings,2022.1.1,Win32,60.12144532
-3.625936187,1.8358,-1.444287961,5.657,0,400,400,322,1,460_e06b3af7ff2f2bfb5f9b6e3d5dc25b9aaa40b84823fac8fd934621bd_circblurint.jpg,-3.430992,-1.607468,circularblurringint,ervi22,2022-06-03_15h54.16.415,ratings,2022.1.1,Win32,60.12144532
1.945225576,1.4407,2.769194471,2.334,0,401,401,117,1,332_4d584229bdae2e1782f77f0e953e528f13c3dfa79b4b94736c0310fa_blur.jpg,3.157348,0.483092,blurring,ervi22,2022-06-03_15h54.16.415,ratings,2022.1.1,Win32,60.12144532
-3.223314178,4.38,-1.781367184,6.0563,0,402,402,354,1,500_3b520c7f352afa1a9f8c07e56cc0588cdc04d25ff6e7b602b5e280cb_orig.jpg,-0.8328,3.11766,original,ervi22,2022-06-03_15h54.16.415,ratings,2022.1.1,Win32,60.12144532
-2.521066987,1.4385,-0.292602996,3.3,0,403,403,166,1,361_b5541309527dc3c2422f45a95ebb0ed32005e6fe10d0489a1ff1fbdc_circblurint.jpg,-3.987612,-0.2516452,circularblurringint,ervi22,2022-06-03_15h54.16.415,ratings,2022.1.1,Win32,60.12144532
0.493914715,2.2009,1.598782486,3.0519,0,404,404,543,1,1005_b980c0747d20935bc63cc27a9e05ce2ff5bae98f859872ec48edd7f5_blur.jpg,3.428572,-0.476192,blurring,ervi22,2022-06-03_15h54.16.415,ratings,2022.1.1,Win32,60.12144532
0.166199359,2.6162,1.448970609,3.6204,0,405,405,164,1,361_b5541309527dc3c2422f45a95ebb0ed32005e6fe10d0489a1ff1fbdc_edges.jpg,-3.987612,-0.2516452,edges,ervi22,2022-06-03_15h54.16.415,ratings,2022.1.1,Win32,60.12144532
1.458333048,2.9533,2.516385768,4.1953,0,406,406,26,1,59_8568373b727f29d67ba6ce4c360dd918c8b08b13495fca56bdda5e82_edges.jpg,2.064896,0.505688,edges,ervi22,2022-06-03_15h54.16.415,ratings,2022.1.1,Win32,60.12144532
1.514513394,1.8874,2.254213197,3.1854,0,407,407,590,1,1228_557412d34d6a70b7c5d222e030aa485b351a4574e8ba1a3112d1d13d_edges.jpg,2.137444,0.703464,edges,ervi22,2022-06-03_15h54.16.415,ratings,2022.1.1,Win32,60.12144532
1.317883609,1.3694,2.160580239,2.1674,0,408,408,286,1,440_dc6413e2b65369ee2587f4d85621742fe4ca87392d0a8ad2ea7d94e3_circblurint.jpg,-3.016216,1.69404,circularblurringint,ervi22,2022-06-03_15h54.16.415,ratings,2022.1.1,Win32,60.12144532
0.550093633,1.6565,1.383427824,2.4824,0,409,409,109,1,293_3dfdfafc0c6a54b2da7453750ac281f7718c0b3337b0a74c4563d6bd_bw.jpg,-2.574524,2.632596,blackwhite,ervi22,2022-06-03_15h54.16.415,ratings,2022.1.1,Win32,60.12144532
-0.358145782,2.6988,0.78417603,5.2251,0,410,410,442,1,700_59cb565f134f1afd066d7b6d936c6511b7cb76de0e9cbb5ce15124ad_circblurint.jpg,0.0,0.0,circularblurringint,ervi22,2022-06-03_15h54.16.415,ratings,2022.1.1,Win32,60.12144532
-0.554775567,2.0842,0.887172856,3.2348,0,411,411,215,1,394_8e3a0cb945144d53bd1ace04b6256237ed9dcbbd9cb83f8a4886b0e6_circblurext.jpg,-2.593884,2.651956,circularblurringext,ervi22,2022-06-03_15h54.16.415,ratings,2022.1.1,Win32,60.12144532
1.383427824,10.7128,2.404026503,26.0039,0,412,412,4,1,13_771f4fcf0a212d25d6a78565e7f34cc5ddd823e7afbdc77ef063326e_circblurint.jpg,2.190476,0.0,circularblurringint,ervi22,2022-06-03_15h54.16.415,ratings,2022.1.1,Win32,60.12144532
1.458333048,8.7364,2.581928553,9.7135,0,413,413,69,1,172_c641c6c56ca6b594b773084e1363c852abdb65f988d7ff802ee503f2_blur.jpg,0.379572,0.01725328,blurring,ervi22,2022-06-03_15h54.16.415,ratings,2022.1.1,Win32,60.12144532
1.458333048,2.5486,2.497659462,7.55,0,414,414,409,1,687_e3b018945792a574962235c88c553b7c318c75eec2596478e8a7b877_bw.jpg,3.63918,-0.42586,blackwhite,ervi22,2022-06-03_15h54.16.415,ratings,2022.1.1,Win32,60.12144532
-0.208332476,6.9875,-0.404962261,8.0671,0,415,415,299,1,449_9c1e990a3480e5b51430fe76b0188e69ba2468fd6a866b88b2d0dd75_circblurext.jpg,0.095238,0.03174604,circularblurringext,ervi22,2022-06-03_15h54.16.415,ratings,2022.1.1,Win32,60.12144532
-1.678370358,6.8422,1.233614518,8.1739,0,416,416,192,1,379_eeaa6d9bf5a4ef205dc48bc505cf3a7f24ea86e99af9b371e03602a7_orig.jpg,-0.3926308,2.88936,original,ervi22,2022-06-03_15h54.16.415,ratings,2022.1.1,Win32,60.12144532
-2.240168111,3.3977,-2.427434028,4.3284,0,417,417,273,1,434_ba36d91204d7e578001f6a545d7501e65d209554def5a3c8b7583825_blur.jpg,-3.523808,1.428572,blurring,ervi22,2022-06-03_15h54.16.415,ratings,2022.1.1,Win32,60.12144532
-3.195224719,7.8246,-1.772003317,9.2543,0,418,418,515,1,858_2f6539ee36aba48c38dc716d4f7c3ae93367d6ddf23ab41745d4172c_circblurext.jpg,0.0623832,0.176752,circularblurringext,ervi22,2022-06-03_15h54.16.415,ratings,2022.1.1,Win32,60.12144532
0.765449724,3.1153,1.945225576,4.4452,0,419,419,569,1,1037_e2eb929a6de79a63ce6cfe5321fcb74a203b134e4094932d90b01d99_circblurext.jpg,2.651956,0.0,circularblurringext,ervi22,2022-06-03_15h54.16.415,ratings,2022.1.1,Win32,60.12144532
1.720505618,1.8859,0.531367327,8.2711,0,420,420,468,1,741_2b218fb015e3da83db73cacdb52e61e0c2534c1fe255bb1c5c74d47f_orig.jpg,3.140096,0.448584,original,ervi22,2022-06-03_15h54.16.415,ratings,2022.1.1,Win32,60.12144532
-0.433052434,4.3688,-0.45177874,5.2929,0,421,421,329,1,468_8b69b13120daebadd8a4a3166e1419f2404395cba231307a4efa9fde_circblurext.jpg,2.031744,0.2539684,circularblurringext,ervi22,2022-06-03_15h54.16.415,ratings,2022.1.1,Win32,60.12144532
1.327247477,2.3165,2.319757412,3.6032,0,422,422,174,1,368_6507b94d7d0199f14efd3706db30c9c44b96085f84e9cc7792e3e0ae_orig.jpg,1.959544,0.400336,original,ervi22,2022-06-03_15h54.16.415,ratings,2022.1.1,Win32,60.12144532
-0.517321526,6.1729,0.60627398,7.5692,0,423,423,392,1,663_aaf52107fe3a86392530d88b34e86f9d2b6820714cad98d1e3c2cb67_edges.jpg,2.58766,0.0918696,edges,ervi22,2022-06-03_15h54.16.415,ratings,2022.1.1,Win32,60.12144532
-2.446161049,1.5528,-2.511703834,2.8054,0,424,424,160,1,358_157f8ac929713531a15b1ecf115e7b659cb90e83d675251e368d165f_circblurint.jpg,-3.777776,-0.571428,circularblurringint,ervi22,2022-06-03_15h54.16.415,ratings,2022.1.1,Win32,60.12144532
1.814138577,1.7208,2.90028147,2.9332,0,425,425,76,1,236_f645730e1eb06155418c9a571329cc7fa320654fcaaedf1048b5cc11_circblurint.jpg,2.253968,0.0,circularblurringint,ervi22,2022-06-03_15h54.16.415,ratings,2022.1.1,Win32,60.12144532
-1.528557767,2.3342,-0.376872088,3.3481,0,426,426,533,1,915_dc9fd40a3b5d64a180833a7bac86e7556c24f681f473fe255e41f936_circblurext.jpg,-3.09294,-0.918696,circularblurringext,ervi22,2022-06-03_15h54.16.415,ratings,2022.1.1,Win32,60.12144532
-2.258895131,1.5374,-0.386235955,2.5503,0,427,427,138,1,353_44e285740cb41818482ac93fc5fbd72c18029444a1d7506c9fc053e7_orig.jpg,-3.232676,-0.87108,original,ervi22,2022-06-03_15h54.16.415,ratings,2022.1.1,Win32,60.12144532
0.29728493,3.1995,1.35533765,4.3627,0,428,428,352,1,498_305b74cdc4784d9d25e72724302e5402def70177ea31ae7e25fab66b_circblurint.jpg,3.04762,-0.444444,circularblurringint,ervi22,2022-06-03_15h54.16.415,ratings,2022.1.1,Win32,60.12144532
0.353465277,1.6682,1.27106713,3.1529,0,429,429,507,1,855_66d893451dfd1e7615132071c6c8a82b02dc2b37781cd89400883b26_blur.jpg,2.69484,0.2143624,blurring,ervi22,2022-06-03_15h54.16.415,ratings,2022.1.1,Win32,60.12144532
0.484550848,1.5185,2.619382594,2.5169,0,430,430,523,1,877_cab3efed0c9ff4552037df6c1ea4ea9713f915c94592a14dbf2799da_bw.jpg,3.174604,0.3174604,blackwhite,ervi22,2022-06-03_15h54.16.415,ratings,2022.1.1,Win32,60.12144532
-0.217696343,1.6524,-0.330055608,3.0905,0,431,431,169,1,365_45a719cabbc9aa308c4fcb30d529489c6966ac4073874af84f665c61_bw.jpg,2.507936,-1.968252,blackwhite,ervi22,2022-06-03_15h54.16.415,ratings,2022.1.1,Win32,60.12144532
1.448970609,1.8899,2.46020685,2.8986,0,432,432,336,1,492_a1a4d288d3bc486c83c3b6a835c42891989f5ba781633932298a7676_orig.jpg,3.406892,-0.44522,original,ervi22,2022-06-03_15h54.16.415,ratings,2022.1.1,Win32,60.12144532
0.334737542,5.0101,1.505149527,6.0074,0,433,433,576,1,1061_665178b9cb0bc869cc2e2b68def4838db04e66f9531098fb75875a09_orig.jpg,0.3492064,-0.3174604,original,ervi22,2022-06-03_15h54.16.415,ratings,2022.1.1,Win32,60.12144532
1.477060782,2.0891,2.32911985,3.7014,0,434,434,564,1,1037_e2eb929a6de79a63ce6cfe5321fcb74a203b134e4094932d90b01d99_orig.jpg,2.651956,0.0,original,ervi22,2022-06-03_15h54.16.415,ratings,2022.1.1,Win32,60.12144532
2.301029677,1.5355,2.787922206,2.6657,0,435,435,229,1,407_578d31d32e806706dde2563213f130b90e621abfed0e47ecabd85d27_bw.jpg,3.5873,-0.444444,blackwhite,ervi22,2022-06-03_15h54.16.415,ratings,2022.1.1,Win32,60.12144532
-0.339419476,2.2827,0.737359551,3.9004,0,436,436,439,1,700_59cb565f134f1afd066d7b6d936c6511b7cb76de0e9cbb5ce15124ad_bw.jpg,0.0,0.0,blackwhite,ervi22,2022-06-03_15h54.16.415,ratings,2022.1.1,Win32,60.12144532
-0.27387669,3.6137,-0.395598394,4.8752,0,437,437,325,1,468_8b69b13120daebadd8a4a3166e1419f2404395cba231307a4efa9fde_bw.jpg,2.031744,0.2539684,blackwhite,ervi22,2022-06-03_15h54.16.415,ratings,2022.1.1,Win32,60.12144532
-0.339419476,3.5318,-0.386235955,4.4625,0,438,438,479,1,748_e519892faa7c772a0afaf9eeff36cf0e411574027ab3d9aa4947a048_circblurext.jpg,-1.813112,3.307432,circularblurringext,ervi22,2022-06-03_15h54.16.415,ratings,2022.1.1,Win32,60.12144532
-0.292602996,1.4692,-0.404962261,2.4523,0,439,439,284,1,440_dc6413e2b65369ee2587f4d85621742fe4ca87392d0a8ad2ea7d94e3_edges.jpg,-3.016216,1.69404,edges,ervi22,2022-06-03_15h54.16.415,ratings,2022.1.1,Win32,60.12144532
-2.146535152,2.1395,-2.389981416,5.3325,0,440,440,311,1,455_34a7d8167619d110206c369e3f7dce8a3f99db763a9d8e2b956501d3_circblurext.jpg,-2.526412,-0.3827896,circularblurringext,ervi22,2022-06-03_15h54.16.415,ratings,2022.1.1,Win32,60.12144532
-0.386235955,1.9203,-0.573501873,3.9625,0,441,441,441,1,700_59cb565f134f1afd066d7b6d936c6511b7cb76de0e9cbb5ce15124ad_blur.jpg,0.0,0.0,blurring,ervi22,2022-06-03_15h54.16.415,ratings,2022.1.1,Win32,60.12144532
-1.49110444,4.8446,0.465824542,9.1534,0,442,442,559,1,1022_cf035e583d41a856836f8b0ae314ecbe79dffd9e40ef6a08cc26028f_bw.jpg,-0.2516452,3.05846,blackwhite,ervi22,2022-06-03_15h54.16.415,ratings,2022.1.1,Win32,60.12144532
-2.174625325,2.3555,1.767322097,3.3328,0,443,443,313,1,459_46e25de472bb056cb470716d30937415f7344bfc4354d6eb710d8c9f_bw.jpg,0.03174604,0.0,blackwhite,ervi22,2022-06-03_15h54.16.415,ratings,2022.1.1,Win32,60.12144532
0.110019012,4.4286,1.383427824,5.8231,0,444,444,592,1,1228_557412d34d6a70b7c5d222e030aa485b351a4574e8ba1a3112d1d13d_circblurint.jpg,2.137444,0.703464,circularblurringint,ervi22,2022-06-03_15h54.16.415,ratings,2022.1.1,Win32,60.12144532
3.321629785,4.6261,3.415262744,5.6573,0,445,445,407,1,686_6745b57686ad5d1bd6cf3e7ed5bc0243a154f8939e88e30321dfcfdb_circblurext.jpg,-1.523808,3.650792,circularblurringext,ervi22,2022-06-03_15h54.16.415,ratings,2022.1.1,Win32,60.12144532
3.237359265,1.7566,3.396536438,2.7345,0,446,446,445,1,709_69c01dcde028a2a1a913f1a2a5026ae1748484f75c89217a040c6791_bw.jpg,1.432444,-0.01935732,blackwhite,ervi22,2022-06-03_15h54.16.415,ratings,2022.1.1,Win32,60.12144532
