valence_slider.response,valence_slider.rt,arousal_slider.response,arousal_slider.rt,trials.thisRepN,trials.thisTrialN,trials.thisN,trials.thisIndex,trials.ran,img_name,vm,am,manipulation,participant,date,expName,psychopyVersion,OS,frameRate
3.960674157,71.1659,-0.018726592,75.6391,0,0,0,254,1,416_5eb54976bb41ce2a6d129ef985f792e716f010fb9b69b15f50f5d2db_edges.jpg,-2.58766,2.602972,edges,,2022-06-10_11h55.44.376,ratings,2022.1.1,Win32,60.0348202
-0.79588015,31.4447,-0.730337079,36.5327,0,1,1,151,1,355_00a76f54934d36566dd0e7b091b8aa6a56d8e6b32d349aa578a10b45_bw.jpg,2.910052,0.3439152,blackwhite,,2022-06-10_11h55.44.376,ratings,2022.1.1,Win32,60.0348202
-1.722846442,11.6768,-0.842696629,18.996,0,2,2,464,1,736_bb85db1bcda8eb34299aa5791ac65a0a7c343266eb2d6e6e328ec0e1_edges.jpg,3.650792,-0.03174604,edges,,2022-06-10_11h55.44.376,ratings,2022.1.1,Win32,60.0348202
-2.059925094,27.9258,0.393258427,40.0853,0,3,3,287,1,440_dc6413e2b65369ee2587f4d85621742fe4ca87392d0a8ad2ea7d94e3_circblurext.jpg,-3.016216,1.69404,circularblurringext,,2022-06-10_11h55.44.376,ratings,2022.1.1,Win32,60.0348202
-2.284644195,2.6049,0.917602996,4.9031,0,4,4,299,1,449_9c1e990a3480e5b51430fe76b0188e69ba2468fd6a866b88b2d0dd75_circblurext.jpg,0.095238,0.03174604,circularblurringext,,2022-06-10_11h55.44.376,ratings,2022.1.1,Win32,60.0348202
-0.880149813,4.5592,-0.786516854,5.6492,0,5,5,597,1,1239_cee00457f4cfb76a407b12fd5ad714d440a4614c1e5467ee16caf618_blur.jpg,-0.03174604,0.190476,blurring,,2022-06-10_11h55.44.376,ratings,2022.1.1,Win32,60.0348202
-2.415730337,1.8535,0.58988764,7.3139,0,6,6,95,1,258_d26019382777d2159a974a7654923e71598135ce2cd710cea1f92865_circblurext.jpg,3.497684,-0.61104,circularblurringext,,2022-06-10_11h55.44.376,ratings,2022.1.1,Win32,60.0348202
-0.852059925,6.126,-0.720973783,7.1811,0,7,7,242,1,411_adfd0d5782129756321ff671d0cfb712528504c66c863df11aabd1e7_edges.jpg,-3.392332,-1.369576,edges,,2022-06-10_11h55.44.376,ratings,2022.1.1,Win32,60.0348202
-2.406367041,4.1864,1.020599251,6.444,0,8,8,531,1,915_dc9fd40a3b5d64a180833a7bac86e7556c24f681f473fe255e41f936_blur.jpg,-3.09294,-0.918696,blurring,,2022-06-10_11h55.44.376,ratings,2022.1.1,Win32,60.0348202
-2.256554307,7.8159,1.029962547,9.7698,0,9,9,562,1,1022_cf035e583d41a856836f8b0ae314ecbe79dffd9e40ef6a08cc26028f_circblurint.jpg,-0.2516452,3.05846,circularblurringint,,2022-06-10_11h55.44.376,ratings,2022.1.1,Win32,60.0348202
-2.331460674,4.7431,0.440074906,8.4363,0,10,10,16,1,39_2fafccaa4dc69045a05845f59c6b3cd2edcf7e0e0c108b24e553afe0_circblurint.jpg,2.022756,0.463548,circularblurringint,,2022-06-10_11h55.44.376,ratings,2022.1.1,Win32,60.0348202
-2.5,2.3923,0.468164794,3.9208,0,11,11,15,1,39_2fafccaa4dc69045a05845f59c6b3cd2edcf7e0e0c108b24e553afe0_blur.jpg,2.022756,0.463548,blurring,,2022-06-10_11h55.44.376,ratings,2022.1.1,Win32,60.0348202
-1.11423221,51.5292,-0.056179775,52.8745,0,12,12,396,1,683_a004ad18331da968da5debdd15e1447dd7748750af0bc6c57b844200_orig.jpg,-2.91956,2.466524,original,,2022-06-10_11h55.44.376,ratings,2022.1.1,Win32,60.0348202
-0.842696629,2.9634,-0.814606742,4.5793,0,13,13,521,1,860_05c4e22518a30d3d2add458a8fc6488f87b9b02dd8e385ded939f025_circblurext.jpg,1.955092,0.3097172,circularblurringext,,2022-06-10_11h55.44.376,ratings,2022.1.1,Win32,60.0348202
-0.758426966,8.894,-0.786516854,9.8316,0,14,14,356,1,500_3b520c7f352afa1a9f8c07e56cc0588cdc04d25ff6e7b602b5e280cb_edges.jpg,-0.8328,3.11766,edges,,2022-06-10_11h55.44.376,ratings,2022.1.1,Win32,60.0348202
-1.5917603,4.4764,0.355805243,5.7199,0,15,15,259,1,416_8a1f874e0057d67a4e6955865ba88b2d8ce2c8b4469589307687a723_bw.jpg,-1.753336,3.088264,blackwhite,,2022-06-10_11h55.44.376,ratings,2022.1.1,Win32,60.0348202
-0.926966292,6.3837,-0.683520599,7.3454,0,16,16,224,1,403_57ac47f43882fc031a6067b1a388c0b2cbe8708dcbd2ff1019932eff_edges.jpg,-3.333332,-1.396824,edges,,2022-06-10_11h55.44.376,ratings,2022.1.1,Win32,60.0348202
1.217228464,4.3271,0.936329588,8.6196,0,17,17,367,1,616_05a637f5281666f53d4e2ef69351485fc21d629b37ee2006b2076eb6_bw.jpg,-2.380952,-0.832364,blackwhite,,2022-06-10_11h55.44.376,ratings,2022.1.1,Win32,60.0348202
-2.509363296,3.9609,1.43258427,5.1388,0,18,18,329,1,468_8b69b13120daebadd8a4a3166e1419f2404395cba231307a4efa9fde_circblurext.jpg,2.031744,0.2539684,circularblurringext,,2022-06-10_11h55.44.376,ratings,2022.1.1,Win32,60.0348202
-2.237827715,2.6035,0.945692884,3.6743,0,19,19,474,1,748_e519892faa7c772a0afaf9eeff36cf0e411574027ab3d9aa4947a048_orig.jpg,-1.813112,3.307432,original,,2022-06-10_11h55.44.376,ratings,2022.1.1,Win32,60.0348202
-2.471910112,2.5537,1.292134831,3.6564,0,20,20,266,1,431_ab5a1dbbe9292ac7f74e276cdabcd372e2c1f852ff34bf7cc6646ef8_edges.jpg,3.102584,0.354334,edges,,2022-06-10_11h55.44.376,ratings,2022.1.1,Win32,60.0348202
-2.518726592,1.9992,1.179775281,3.463,0,21,21,310,1,455_34a7d8167619d110206c369e3f7dce8a3f99db763a9d8e2b956501d3_circblurint.jpg,-2.526412,-0.3827896,circularblurringint,,2022-06-10_11h55.44.376,ratings,2022.1.1,Win32,60.0348202
-2.02247191,12.4386,0.271535581,13.7708,0,22,22,152,1,355_00a76f54934d36566dd0e7b091b8aa6a56d8e6b32d349aa578a10b45_edges.jpg,2.910052,0.3439152,edges,,2022-06-10_11h55.44.376,ratings,2022.1.1,Win32,60.0348202
-2.312734082,2.1524,1.029962547,3.5062,0,23,23,173,1,365_45a719cabbc9aa308c4fcb30d529489c6966ac4073874af84f665c61_circblurext.jpg,2.507936,-1.968252,circularblurringext,,2022-06-10_11h55.44.376,ratings,2022.1.1,Win32,60.0348202
-3.970037453,9.0616,1.123595506,10.775,0,24,24,558,1,1022_cf035e583d41a856836f8b0ae314ecbe79dffd9e40ef6a08cc26028f_orig.jpg,-0.2516452,3.05846,original,,2022-06-10_11h55.44.376,ratings,2022.1.1,Win32,60.0348202
-2.312734082,7.0864,0.084269663,4.6696,0,25,25,212,1,394_8e3a0cb945144d53bd1ace04b6256237ed9dcbbd9cb83f8a4886b0e6_edges.jpg,-2.593884,2.651956,edges,,2022-06-10_11h55.44.376,ratings,2022.1.1,Win32,60.0348202
-2.078651685,2.4766,0.056179775,3.8925,0,26,26,365,1,508_a7a9519cdc7aad6844030f4e6cd96cffd1b9c49b71e20ea52789bda2_circblurext.jpg,-3.000388,-1.29694,circularblurringext,,2022-06-10_11h55.44.376,ratings,2022.1.1,Win32,60.0348202
-1.235955056,12.3448,0.852059925,13.5385,0,27,27,543,1,1005_b980c0747d20935bc63cc27a9e05ce2ff5bae98f859872ec48edd7f5_blur.jpg,3.428572,-0.476192,blurring,,2022-06-10_11h55.44.376,ratings,2022.1.1,Win32,60.0348202
1.610486891,2.7881,0.337078652,4.9161,0,28,28,270,1,434_ba36d91204d7e578001f6a545d7501e65d209554def5a3c8b7583825_orig.jpg,-3.523808,1.428572,original,,2022-06-10_11h55.44.376,ratings,2022.1.1,Win32,60.0348202
-2.649812734,2.0703,0.758426966,3.0928,0,29,29,135,1,349_8809a67686d34844c915d7700e2ea72ad1c02ae232ae0d3cc0e458d4_blur.jpg,-3.619048,-0.2857144,blurring,,2022-06-10_11h55.44.376,ratings,2022.1.1,Win32,60.0348202
2.425093633,2.7542,2.284644195,4.638,0,30,30,91,1,258_d26019382777d2159a974a7654923e71598135ce2cd710cea1f92865_bw.jpg,3.497684,-0.61104,blackwhite,,2022-06-10_11h55.44.376,ratings,2022.1.1,Win32,60.0348202
1.610486891,2.6124,1.076779026,3.837,0,31,31,120,1,347_27f0e47c2722605b950ccf9fa900f78271e4c3c874064ab5dacac160_orig.jpg,1.838948,0.3097172,original,,2022-06-10_11h55.44.376,ratings,2022.1.1,Win32,60.0348202
-1.11423221,38.8926,0.374531835,39.9392,0,32,32,536,1,986_a77edb21e78bc3a6aa7406517824596b3496ad6c657b6befb84cf370_edges.jpg,-3.906316,-0.60496,edges,,2022-06-10_11h55.44.376,ratings,2022.1.1,Win32,60.0348202
0.861423221,3.0758,0.131086142,4.7875,0,33,33,355,1,500_3b520c7f352afa1a9f8c07e56cc0588cdc04d25ff6e7b602b5e280cb_bw.jpg,-0.8328,3.11766,blackwhite,,2022-06-10_11h55.44.376,ratings,2022.1.1,Win32,60.0348202
0.842696629,2.332,1.123595506,3.253,0,34,34,420,1,692_e3e3bf88684fbbcdb9849a4147f9e2fcd39b0f083554a829aca4e9fa_orig.jpg,-0.44522,3.135888,original,,2022-06-10_11h55.44.376,ratings,2022.1.1,Win32,60.0348202
1.928838951,1.8473,-1.732209738,3.5994,0,35,35,582,1,1225_59c67a821456f2cce3e5acf66d7f00076bd02caffc984c1eb0df794e_orig.jpg,-0.444444,3.809524,original,,2022-06-10_11h55.44.376,ratings,2022.1.1,Win32,60.0348202
-2.546816479,3.0971,1.441947566,1.9532,0,36,36,278,1,440_9bf7e8609729bf888835168834da6c3ff30b75d0d4f36e2ee6918bcc_edges.jpg,-2.284164,2.710028,edges,,2022-06-10_11h55.44.376,ratings,2022.1.1,Win32,60.0348202
-2.593632959,1.7542,1.516853933,2.3921,0,37,37,484,1,759_95e1c46ed9a337414d5c8eada8fa8b9632e18751f5ce6ed587806e91_circblurint.jpg,2.126984,0.0,circularblurringint,,2022-06-10_11h55.44.376,ratings,2022.1.1,Win32,60.0348202
-0.833333333,2.5784,-0.833333333,3.4203,0,38,38,211,1,394_8e3a0cb945144d53bd1ace04b6256237ed9dcbbd9cb83f8a4886b0e6_bw.jpg,-2.593884,2.651956,blackwhite,,2022-06-10_11h55.44.376,ratings,2022.1.1,Win32,60.0348202
-0.926966292,2.9066,-0.786516854,2.2264,0,39,39,586,1,1225_59c67a821456f2cce3e5acf66d7f00076bd02caffc984c1eb0df794e_circblurint.jpg,-0.444444,3.809524,circularblurringint,,2022-06-10_11h55.44.376,ratings,2022.1.1,Win32,60.0348202
0.945692884,2.3141,0.308988764,3.8202,0,40,40,408,1,687_e3b018945792a574962235c88c553b7c318c75eec2596478e8a7b877_orig.jpg,3.63918,-0.42586,original,,2022-06-10_11h55.44.376,ratings,2022.1.1,Win32,60.0348202
-1.470037453,5.0082,-1.048689139,4.1593,0,41,41,206,1,381_5935a9f9796adce2f1539af6c75bcdc0c80d847a2ce9b77cf59b7672_edges.jpg,-1.327432,-0.442476,edges,,2022-06-10_11h55.44.376,ratings,2022.1.1,Win32,60.0348202
-1.441947566,42.183,0.177902622,43.3123,0,42,42,77,1,236_f645730e1eb06155418c9a571329cc7fa320654fcaaedf1048b5cc11_circblurext.jpg,2.253968,0.0,circularblurringext,,2022-06-10_11h55.44.376,ratings,2022.1.1,Win32,60.0348202
-1.460674157,2.6382,-0.543071161,1.6783,0,43,43,573,1,1039_d64da8480fc6e94dcdc513237d600570ae0b9fe48795ac6a8b2d29a7_blur.jpg,-2.507936,-1.142856,blurring,,2022-06-10_11h55.44.376,ratings,2022.1.1,Win32,60.0348202
-1.966292135,2.7884,0.402621723,3.7531,0,44,44,441,1,700_59cb565f134f1afd066d7b6d936c6511b7cb76de0e9cbb5ce15124ad_blur.jpg,0.0,0.0,blurring,,2022-06-10_11h55.44.376,ratings,2022.1.1,Win32,60.0348202
-0.945692884,2.4605,1.151685393,3.7199,0,45,45,585,1,1225_59c67a821456f2cce3e5acf66d7f00076bd02caffc984c1eb0df794e_blur.jpg,-0.444444,3.809524,blurring,,2022-06-10_11h55.44.376,ratings,2022.1.1,Win32,60.0348202
-0.767790262,3.5546,-0.646067416,4.5308,0,46,46,218,1,396_208259ea431d47bb7f3946213eb099834eb119756ce304ad473d4d9f_edges.jpg,2.857144,-0.3809524,edges,,2022-06-10_11h55.44.376,ratings,2022.1.1,Win32,60.0348202
-1.938202247,2.7884,0.58988764,3.8701,0,47,47,100,1,267_792043debad81ce271cec5b3c3bd9d264efc13f362bec9c7a3f72fe7_circblurint.jpg,1.980616,0.2107036,circularblurringint,,2022-06-10_11h55.44.376,ratings,2022.1.1,Win32,60.0348202
-2.18164794,1.8749,0.720973783,3.171,0,48,48,452,1,716_2ab64478147184c4df720a52cf621875addc9007cb2967e4a9a88909_edges.jpg,2.428484,0.0,edges,,2022-06-10_11h55.44.376,ratings,2022.1.1,Win32,60.0348202
1.320224719,3.4392,-0.046816479,4.2247,0,49,49,139,1,353_44e285740cb41818482ac93fc5fbd72c18029444a1d7506c9fc053e7_bw.jpg,-3.232676,-0.87108,blackwhite,,2022-06-10_11h55.44.376,ratings,2022.1.1,Win32,60.0348202
-1.872659176,1.4882,-0.346441948,2.0537,0,50,50,197,1,379_eeaa6d9bf5a4ef205dc48bc505cf3a7f24ea86e99af9b371e03602a7_circblurext.jpg,-0.3926308,2.88936,circularblurringext,,2022-06-10_11h55.44.376,ratings,2022.1.1,Win32,60.0348202
1.235955056,1.5565,-2.303370787,3.4378,0,51,51,229,1,407_578d31d32e806706dde2563213f130b90e621abfed0e47ecabd85d27_bw.jpg,3.5873,-0.444444,blackwhite,,2022-06-10_11h55.44.376,ratings,2022.1.1,Win32,60.0348202
-0.833333333,1.8295,-0.31835206,2.821,0,52,52,269,1,431_ab5a1dbbe9292ac7f74e276cdabcd372e2c1f852ff34bf7cc6646ef8_circblurext.jpg,3.102584,0.354334,circularblurringext,,2022-06-10_11h55.44.376,ratings,2022.1.1,Win32,60.0348202
-1.86329588,2.0482,0.15917603,3.9698,0,53,53,530,1,915_dc9fd40a3b5d64a180833a7bac86e7556c24f681f473fe255e41f936_edges.jpg,-3.09294,-0.918696,edges,,2022-06-10_11h55.44.376,ratings,2022.1.1,Win32,60.0348202
-1.179775281,6.0537,-0.187265918,7.0153,0,54,54,191,1,369_c99797771115d7627d4abe3415f814497288f91a7be1a04c17c776b9_circblurext.jpg,3.619824,-0.174216,circularblurringext,,2022-06-10_11h55.44.376,ratings,2022.1.1,Win32,60.0348202
-0.561797753,2.9887,-0.243445693,4.0764,0,55,55,501,1,854_081a8409e4d6d10923b2dedcc16a3fca405fcd602e55a20d84cac69d_blur.jpg,3.088264,1.21538,blurring,,2022-06-10_11h55.44.376,ratings,2022.1.1,Win32,60.0348202
-1.217228464,2.8629,-0.093632959,1.9364,0,56,56,351,1,498_305b74cdc4784d9d25e72724302e5402def70177ea31ae7e25fab66b_blur.jpg,3.04762,-0.444444,blurring,,2022-06-10_11h55.44.376,ratings,2022.1.1,Win32,60.0348202
-1.638576779,1.6693,0.889513109,2.8457,0,57,57,413,1,687_e3b018945792a574962235c88c553b7c318c75eec2596478e8a7b877_circblurext.jpg,3.63918,-0.42586,circularblurringext,,2022-06-10_11h55.44.376,ratings,2022.1.1,Win32,60.0348202
-1.994382022,1.1985,1.498127341,2.2223,0,58,58,215,1,394_8e3a0cb945144d53bd1ace04b6256237ed9dcbbd9cb83f8a4886b0e6_circblurext.jpg,-2.593884,2.651956,circularblurringext,,2022-06-10_11h55.44.376,ratings,2022.1.1,Win32,60.0348202
-1.5917603,6.1161,0.168539326,6.83,0,59,59,590,1,1228_557412d34d6a70b7c5d222e030aa485b351a4574e8ba1a3112d1d13d_edges.jpg,2.137444,0.703464,edges,,2022-06-10_11h55.44.376,ratings,2022.1.1,Win32,60.0348202
1.647940075,2.387,0.552434457,4.8211,0,60,60,459,1,720_483c541c48959a597fcf44320941afaf8b7695105f90d65b5f6b30f2_blur.jpg,2.158732,-0.2539684,blurring,,2022-06-10_11h55.44.376,ratings,2022.1.1,Win32,60.0348202
-1.516853933,2.5248,0.486891386,3.4534,0,61,61,458,1,720_483c541c48959a597fcf44320941afaf8b7695105f90d65b5f6b30f2_edges.jpg,2.158732,-0.2539684,edges,,2022-06-10_11h55.44.376,ratings,2022.1.1,Win32,60.0348202
-2.668539326,2.1818,0.692883895,3.4136,0,62,62,513,1,858_2f6539ee36aba48c38dc716d4f7c3ae93367d6ddf23ab41745d4172c_blur.jpg,0.0623832,0.176752,blurring,,2022-06-10_11h55.44.376,ratings,2022.1.1,Win32,60.0348202
-2.050561798,2.5296,0.664794007,3.3058,0,63,63,297,1,449_9c1e990a3480e5b51430fe76b0188e69ba2468fd6a866b88b2d0dd75_blur.jpg,0.095238,0.03174604,blurring,,2022-06-10_11h55.44.376,ratings,2022.1.1,Win32,60.0348202
-2.425093633,2.5133,0.842696629,3.1616,0,64,64,494,1,824_b1d91cc824ce0d3d383d3147da88d3d6dbaf6be918bab79e3ec8f501_edges.jpg,-3.645176,-1.432784,edges,,2022-06-10_11h55.44.376,ratings,2022.1.1,Win32,60.0348202
0.571161049,2.2469,-2.359550562,3.1908,0,65,65,342,1,494_5c6c3b85a2734a43c24bfe337d42ffcc82b7347227804d01c784cef4_orig.jpg,0.03871468,0.0,original,,2022-06-10_11h55.44.376,ratings,2022.1.1,Win32,60.0348202
2.397003745,1.8055,-3.72659176,3.3533,0,66,66,114,1,332_4d584229bdae2e1782f77f0e953e528f13c3dfa79b4b94736c0310fa_orig.jpg,3.157348,0.483092,original,,2022-06-10_11h55.44.376,ratings,2022.1.1,Win32,60.0348202
-2.116104869,4.2098,1.638576779,4.9164,0,67,67,524,1,877_cab3efed0c9ff4552037df6c1ea4ea9713f915c94592a14dbf2799da_edges.jpg,3.174604,0.3174604,edges,,2022-06-10_11h55.44.376,ratings,2022.1.1,Win32,60.0348202
-3.258426966,6.1968,-3.164794007,7.0228,0,68,68,330,1,482_a1cd28915c5044c018195ab0fff10dcc95e385246b045a7cd4463ff7_orig.jpg,-3.361852,-1.555612,original,,2022-06-10_11h55.44.376,ratings,2022.1.1,Win32,60.0348202
-0.664794007,3.4563,-0.655430712,4.0971,0,69,69,22,1,48_2cc936b2483ab2944c9158e163342b874ef6c1492fd8fca08c0e096e_circblurint.jpg,-1.264224,-0.779604,circularblurringint,,2022-06-10_11h55.44.376,ratings,2022.1.1,Win32,60.0348202
-1.451310861,6.4881,0.402621723,7.4255,0,70,70,258,1,416_8a1f874e0057d67a4e6955865ba88b2d8ce2c8b4469589307687a723_orig.jpg,-1.753336,3.088264,original,,2022-06-10_11h55.44.376,ratings,2022.1.1,Win32,60.0348202
-0.964419476,2.5384,-0.383895131,3.5302,0,71,71,533,1,915_dc9fd40a3b5d64a180833a7bac86e7556c24f681f473fe255e41f936_circblurext.jpg,-3.09294,-0.918696,circularblurringext,,2022-06-10_11h55.44.376,ratings,2022.1.1,Win32,60.0348202
-3.13670412,2.4308,0.271535581,3.9984,0,72,72,251,1,414_0187bdf7007109b487865b6a9d388997a6817acf052a6a7cdd5b39d9_circblurext.jpg,-2.786708,-1.133056,circularblurringext,,2022-06-10_11h55.44.376,ratings,2022.1.1,Win32,60.0348202
-1.891385768,3.3339,0.814606742,4.3115,0,73,73,101,1,267_792043debad81ce271cec5b3c3bd9d264efc13f362bec9c7a3f72fe7_circblurext.jpg,1.980616,0.2107036,circularblurringext,,2022-06-10_11h55.44.376,ratings,2022.1.1,Win32,60.0348202
-1.722846442,1.7753,0.95505618,2.5113,0,74,74,514,1,858_2f6539ee36aba48c38dc716d4f7c3ae93367d6ddf23ab41745d4172c_circblurint.jpg,0.0623832,0.176752,circularblurringint,,2022-06-10_11h55.44.376,ratings,2022.1.1,Win32,60.0348202
-1.779026217,2.4383,0.31835206,3.2211,0,75,75,13,1,39_2fafccaa4dc69045a05845f59c6b3cd2edcf7e0e0c108b24e553afe0_bw.jpg,2.022756,0.463548,blackwhite,,2022-06-10_11h55.44.376,ratings,2022.1.1,Win32,60.0348202
1.292134831,2.003,-3.043071161,2.873,0,76,76,546,1,1010_06d15f44b979c086561137000ec070ba4cd479856f92840a7850b2bf_orig.jpg,0.189786,-0.189786,original,,2022-06-10_11h55.44.376,ratings,2022.1.1,Win32,60.0348202
-2.106741573,2.2703,-0.037453184,3.3536,0,77,77,510,1,858_2f6539ee36aba48c38dc716d4f7c3ae93367d6ddf23ab41745d4172c_orig.jpg,0.0623832,0.176752,original,,2022-06-10_11h55.44.376,ratings,2022.1.1,Win32,60.0348202
1.198501873,1.9895,-2.322097378,2.8771,0,78,78,30,1,60_ad52063167538de24f94d7dfd04808cb94cf8f426c40871d2f126505_orig.jpg,2.158732,0.0,original,,2022-06-10_11h55.44.376,ratings,2022.1.1,Win32,60.0348202
2.453183521,2.0421,-3.29588015,3.1056,0,79,79,36,1,82_43f4d5aec7c2e5bd495473f6708a0f2d47c9fe34e1fe9436646cb036_orig.jpg,2.022756,0.505688,original,,2022-06-10_11h55.44.376,ratings,2022.1.1,Win32,60.0348202
-0.74906367,2.7981,-1.404494382,3.6219,0,80,80,185,1,369_98db62a1bdabfd1bc551180da6658005b461585cd21614633cf76470_circblurext.jpg,2.190476,-0.03174604,circularblurringext,,2022-06-10_11h55.44.376,ratings,2022.1.1,Win32,60.0348202
-1.629213483,2.1036,0.833333333,2.8538,0,81,81,201,1,380_34772591c787182a37724027eac6948ebc9d4064f6a601d23b923b8e_blur.jpg,2.222224,-0.063492,blurring,,2022-06-10_11h55.44.376,ratings,2022.1.1,Win32,60.0348202
-2.986891386,2.2616,0.271535581,3.0869,0,82,82,518,1,860_05c4e22518a30d3d2add458a8fc6488f87b9b02dd8e385ded939f025_edges.jpg,1.955092,0.3097172,edges,,2022-06-10_11h55.44.376,ratings,2022.1.1,Win32,60.0348202
1.189138577,1.8918,-2.762172285,2.6758,0,83,83,522,1,877_cab3efed0c9ff4552037df6c1ea4ea9713f915c94592a14dbf2799da_orig.jpg,3.174604,0.3174604,original,,2022-06-10_11h55.44.376,ratings,2022.1.1,Win32,60.0348202
1.06741573,1.5234,-2.34082397,2.3231,0,84,84,97,1,267_792043debad81ce271cec5b3c3bd9d264efc13f362bec9c7a3f72fe7_bw.jpg,1.980616,0.2107036,blackwhite,,2022-06-10_11h55.44.376,ratings,2022.1.1,Win32,60.0348202
-3.033707865,3.5804,1.367041199,5.3363,0,85,85,291,1,442_7449d79dae5d652af9b2429872cabdef938646ba024db2f431b3b28d_blur.jpg,1.619048,0.126984,blurring,,2022-06-10_11h55.44.376,ratings,2022.1.1,Win32,60.0348202
1.43258427,2.4763,-2.265917603,3.5745,0,86,86,449,1,709_69c01dcde028a2a1a913f1a2a5026ae1748484f75c89217a040c6791_circblurext.jpg,1.432444,-0.01935732,circularblurringext,,2022-06-10_11h55.44.376,ratings,2022.1.1,Win32,60.0348202
-1.994382022,1.7929,0.458801498,2.7769,0,87,87,338,1,492_a1a4d288d3bc486c83c3b6a835c42891989f5ba781633932298a7676_edges.jpg,3.406892,-0.44522,edges,,2022-06-10_11h55.44.376,ratings,2022.1.1,Win32,60.0348202
-1.891385768,3.7624,0.964419476,4.5208,0,88,88,303,1,453_54f106fd1d4b65fa4aa347407127fc30d49f791e81aee3a0bbe44489_blur.jpg,2.222224,0.0,blurring,,2022-06-10_11h55.44.376,ratings,2022.1.1,Win32,60.0348202
1.076779026,1.9365,-1.5917603,2.7434,0,89,89,58,1,137_0e6a04243c0a42a5e2528a2d181255ca2a4b7bd6e7978c5c2059c69f_circblurint.jpg,-0.95238,2.095236,circularblurringint,,2022-06-10_11h55.44.376,ratings,2022.1.1,Win32,60.0348202
-1.264044944,6.0053,-1.54494382,2.1107,0,90,90,33,1,60_ad52063167538de24f94d7dfd04808cb94cf8f426c40871d2f126505_blur.jpg,2.158732,0.0,blurring,,2022-06-10_11h55.44.376,ratings,2022.1.1,Win32,60.0348202
0.355805243,3.9147,-1.348314607,4.7068,0,91,91,63,1,156_08e8cf8f04630e9213e610580de73f51572d1d589878648700bae4dc_blur.jpg,2.222224,0.0,blurring,,2022-06-10_11h55.44.376,ratings,2022.1.1,Win32,60.0348202
0.514981273,2.2371,-1.713483146,3.108,0,92,92,433,1,694_f80f33613b268beffd6c044537cf3b44a84683d6e889bc37b8e9c34b_bw.jpg,-0.3785616,3.34728,blackwhite,,2022-06-10_11h55.44.376,ratings,2022.1.1,Win32,60.0348202
1.423220974,2.1931,-2.322097378,3.2535,0,93,93,576,1,1061_665178b9cb0bc869cc2e2b68def4838db04e66f9531098fb75875a09_orig.jpg,0.3492064,-0.3174604,original,,2022-06-10_11h55.44.376,ratings,2022.1.1,Win32,60.0348202
1.732209738,1.4077,-3.099250936,2.4235,0,94,94,37,1,82_43f4d5aec7c2e5bd495473f6708a0f2d47c9fe34e1fe9436646cb036_bw.jpg,2.022756,0.505688,blackwhite,,2022-06-10_11h55.44.376,ratings,2022.1.1,Win32,60.0348202
0.112359551,2.097,-1.91011236,2.729,0,95,95,244,1,411_adfd0d5782129756321ff671d0cfb712528504c66c863df11aabd1e7_circblurint.jpg,-3.392332,-1.369576,circularblurringint,,2022-06-10_11h55.44.376,ratings,2022.1.1,Win32,60.0348202
0.524344569,2.2478,-0.842696629,2.953,0,96,96,4,1,13_771f4fcf0a212d25d6a78565e7f34cc5ddd823e7afbdc77ef063326e_circblurint.jpg,2.190476,0.0,circularblurringint,,2022-06-10_11h55.44.376,ratings,2022.1.1,Win32,60.0348202
1.329588015,2.0118,-2.471910112,2.7477,0,97,97,42,1,92_5d20d78a8e57e628c6930676473a4e0a485e715841efd6286c660020_orig.jpg,2.126984,0.0,original,,2022-06-10_11h55.44.376,ratings,2022.1.1,Win32,60.0348202
-2.191011236,4.7427,0.280898876,6.1364,0,98,98,506,1,855_66d893451dfd1e7615132071c6c8a82b02dc2b37781cd89400883b26_edges.jpg,2.69484,0.2143624,edges,,2022-06-10_11h55.44.376,ratings,2022.1.1,Win32,60.0348202
-2.059925094,1.4545,1.582397004,2.074,0,99,99,292,1,442_7449d79dae5d652af9b2429872cabdef938646ba024db2f431b3b28d_circblurint.jpg,1.619048,0.126984,circularblurringint,,2022-06-10_11h55.44.376,ratings,2022.1.1,Win32,60.0348202
-1.994382022,2.1366,-0.58988764,2.8865,0,100,100,165,1,361_b5541309527dc3c2422f45a95ebb0ed32005e6fe10d0489a1ff1fbdc_blur.jpg,-3.987612,-0.2516452,blurring,,2022-06-10_11h55.44.376,ratings,2022.1.1,Win32,60.0348202
-2.631086142,1.8075,0.870786517,3.2871,0,101,101,298,1,449_9c1e990a3480e5b51430fe76b0188e69ba2468fd6a866b88b2d0dd75_circblurint.jpg,0.095238,0.03174604,circularblurringint,,2022-06-10_11h55.44.376,ratings,2022.1.1,Win32,60.0348202
0.374531835,2.3071,-1.825842697,3.1073,0,102,102,376,1,620_9674719009d75dcfeaed7f15932c43e1fd1af5e25d47b8aadd61efe2_circblurint.jpg,-0.561364,1.142084,circularblurringint,,2022-06-10_11h55.44.376,ratings,2022.1.1,Win32,60.0348202
-1.320224719,1.9762,-0.290262172,2.592,0,103,103,339,1,492_a1a4d288d3bc486c83c3b6a835c42891989f5ba781633932298a7676_blur.jpg,3.406892,-0.44522,blurring,,2022-06-10_11h55.44.376,ratings,2022.1.1,Win32,60.0348202
1.22659176,2.109,-1.966292135,3.029,0,104,104,391,1,663_aaf52107fe3a86392530d88b34e86f9d2b6820714cad98d1e3c2cb67_bw.jpg,2.58766,0.0918696,blackwhite,,2022-06-10_11h55.44.376,ratings,2022.1.1,Win32,60.0348202
2.81835206,3.0595,-2.294007491,5.0045,0,105,105,192,1,379_eeaa6d9bf5a4ef205dc48bc505cf3a7f24ea86e99af9b371e03602a7_orig.jpg,-0.3926308,2.88936,original,,2022-06-10_11h55.44.376,ratings,2022.1.1,Win32,60.0348202
-1.198501873,2.5874,-0.140449438,3.5035,0,106,106,463,1,736_bb85db1bcda8eb34299aa5791ac65a0a7c343266eb2d6e6e328ec0e1_bw.jpg,3.650792,-0.03174604,blackwhite,,2022-06-10_11h55.44.376,ratings,2022.1.1,Win32,60.0348202
-2.602996255,1.9072,0.140449438,2.8109,0,107,107,2,1,13_771f4fcf0a212d25d6a78565e7f34cc5ddd823e7afbdc77ef063326e_edges.jpg,2.190476,0.0,edges,,2022-06-10_11h55.44.376,ratings,2022.1.1,Win32,60.0348202
-1.254681648,3.9327,0.337078652,4.8302,0,108,108,112,1,293_3dfdfafc0c6a54b2da7453750ac281f7718c0b3337b0a74c4563d6bd_circblurint.jpg,-2.574524,2.632596,circularblurringint,,2022-06-10_11h55.44.376,ratings,2022.1.1,Win32,60.0348202
-2.406367041,1.3711,1.076779026,2.0626,0,109,109,320,1,460_e06b3af7ff2f2bfb5f9b6e3d5dc25b9aaa40b84823fac8fd934621bd_edges.jpg,-3.430992,-1.607468,edges,,2022-06-10_11h55.44.376,ratings,2022.1.1,Win32,60.0348202
1.694756554,2.0702,-2.322097378,3.254,0,110,110,373,1,620_9674719009d75dcfeaed7f15932c43e1fd1af5e25d47b8aadd61efe2_bw.jpg,-0.561364,1.142084,blackwhite,,2022-06-10_11h55.44.376,ratings,2022.1.1,Win32,60.0348202
1.170411985,1.6907,-1.788389513,2.3946,0,111,111,447,1,709_69c01dcde028a2a1a913f1a2a5026ae1748484f75c89217a040c6791_blur.jpg,1.432444,-0.01935732,blurring,,2022-06-10_11h55.44.376,ratings,2022.1.1,Win32,60.0348202
-3.923220974,2.4051,0.393258427,4.0206,0,112,112,559,1,1022_cf035e583d41a856836f8b0ae314ecbe79dffd9e40ef6a08cc26028f_bw.jpg,-0.2516452,3.05846,blackwhite,,2022-06-10_11h55.44.376,ratings,2022.1.1,Win32,60.0348202
-1.713483146,1.8229,0.149812734,2.4145,0,113,113,581,1,1061_665178b9cb0bc869cc2e2b68def4838db04e66f9531098fb75875a09_circblurext.jpg,0.3492064,-0.3174604,circularblurringext,,2022-06-10_11h55.44.376,ratings,2022.1.1,Win32,60.0348202
-2.574906367,3.5163,-0.543071161,4.374,0,114,114,333,1,482_a1cd28915c5044c018195ab0fff10dcc95e385246b045a7cd4463ff7_blur.jpg,-3.361852,-1.555612,blurring,,2022-06-10_11h55.44.376,ratings,2022.1.1,Win32,60.0348202
2.425093633,1.4367,-3.61423221,2.853,0,115,115,445,1,709_69c01dcde028a2a1a913f1a2a5026ae1748484f75c89217a040c6791_bw.jpg,1.432444,-0.01935732,blackwhite,,2022-06-10_11h55.44.376,ratings,2022.1.1,Win32,60.0348202
-2.284644195,2.177,-0.018726592,3.2089,0,116,116,300,1,453_54f106fd1d4b65fa4aa347407127fc30d49f791e81aee3a0bbe44489_orig.jpg,2.222224,0.0,original,,2022-06-10_11h55.44.376,ratings,2022.1.1,Win32,60.0348202
-1.498127341,1.727,-0.402621723,2.2866,0,117,117,277,1,440_9bf7e8609729bf888835168834da6c3ff30b75d0d4f36e2ee6918bcc_bw.jpg,-2.284164,2.710028,blackwhite,,2022-06-10_11h55.44.376,ratings,2022.1.1,Win32,60.0348202
2.368913858,2.7295,-3.099250936,3.7706,0,118,118,117,1,332_4d584229bdae2e1782f77f0e953e528f13c3dfa79b4b94736c0310fa_blur.jpg,3.157348,0.483092,blurring,,2022-06-10_11h55.44.376,ratings,2022.1.1,Win32,60.0348202
-1.470037453,1.9201,0.224719101,3.7373,0,119,119,551,1,1010_06d15f44b979c086561137000ec070ba4cd479856f92840a7850b2bf_circblurext.jpg,0.189786,-0.189786,circularblurringext,,2022-06-10_11h55.44.376,ratings,2022.1.1,Win32,60.0348202
-2.621722846,1.3734,0.065543071,2.1892,0,120,120,104,1,284_cdcbd54fc995081ac95c8b2c37a19cebb341f61a8eb268cee1623492_edges.jpg,-1.015872,2.095236,edges,,2022-06-10_11h55.44.376,ratings,2022.1.1,Win32,60.0348202
-2.799625468,1.3386,0.552434457,2.0988,0,121,121,207,1,381_5935a9f9796adce2f1539af6c75bcdc0c80d847a2ce9b77cf59b7672_blur.jpg,-1.327432,-0.442476,blurring,,2022-06-10_11h55.44.376,ratings,2022.1.1,Win32,60.0348202
-1.301498127,1.92,0.533707865,2.8699,0,122,122,431,1,694_7a14b8ab7c564dcb0f628c4de7f6cb54e4c5f6601f774bf167641c37_circblurext.jpg,1.819588,0.116144,circularblurringext,,2022-06-10_11h55.44.376,ratings,2022.1.1,Win32,60.0348202
2.471910112,1.4059,-3.88576779,2.3369,0,123,123,193,1,379_eeaa6d9bf5a4ef205dc48bc505cf3a7f24ea86e99af9b371e03602a7_bw.jpg,-0.3926308,2.88936,blackwhite,,2022-06-10_11h55.44.376,ratings,2022.1.1,Win32,60.0348202
-1.760299625,2.0558,1.601123596,3.0317,0,124,124,28,1,59_8568373b727f29d67ba6ce4c360dd918c8b08b13495fca56bdda5e82_circblurint.jpg,2.064896,0.505688,circularblurringint,,2022-06-10_11h55.44.376,ratings,2022.1.1,Win32,60.0348202
-0.692883895,1.7411,-0.833333333,2.3491,0,125,125,126,1,349_18d92ef5c21ca70a3dd237aad251594e1688bbe01d8cff37b89c46b8_orig.jpg,-2.74874,-1.258228,original,,2022-06-10_11h55.44.376,ratings,2022.1.1,Win32,60.0348202
-2.125468165,1.5703,0.580524345,2.3623,0,126,126,572,1,1039_d64da8480fc6e94dcdc513237d600570ae0b9fe48795ac6a8b2d29a7_edges.jpg,-2.507936,-1.142856,edges,,2022-06-10_11h55.44.376,ratings,2022.1.1,Win32,60.0348202
-2.705992509,1.1568,0.327715356,1.8697,0,127,127,128,1,349_18d92ef5c21ca70a3dd237aad251594e1688bbe01d8cff37b89c46b8_edges.jpg,-2.74874,-1.258228,edges,,2022-06-10_11h55.44.376,ratings,2022.1.1,Win32,60.0348202
-2.509363296,2.0706,0.093632959,3.2604,0,128,128,322,1,460_e06b3af7ff2f2bfb5f9b6e3d5dc25b9aaa40b84823fac8fd934621bd_circblurint.jpg,-3.430992,-1.607468,circularblurringint,,2022-06-10_11h55.44.376,ratings,2022.1.1,Win32,60.0348202
-0.926966292,3.1094,-0.842696629,3.9201,0,129,129,85,1,243_beddb302dcb21071d88c8d2cab07002050d36b3001ef28f89389fa56_bw.jpg,-0.3450656,-0.2070392,blackwhite,,2022-06-10_11h55.44.376,ratings,2022.1.1,Win32,60.0348202
-0.898876404,1.8202,-0.739700375,2.8275,0,130,130,387,1,646_577760d718dab44c6f04d77408c5644a120065ce07a9503957d0850a_blur.jpg,-2.690668,2.61324,blurring,,2022-06-10_11h55.44.376,ratings,2022.1.1,Win32,60.0348202
1.882022472,1.8867,-1.657303371,9.4994,0,131,131,150,1,355_00a76f54934d36566dd0e7b091b8aa6a56d8e6b32d349aa578a10b45_orig.jpg,2.910052,0.3439152,original,,2022-06-10_11h55.44.376,ratings,2022.1.1,Win32,60.0348202
-2.687265918,4.0622,0.299625468,5.0081,0,132,132,482,1,759_95e1c46ed9a337414d5c8eada8fa8b9632e18751f5ce6ed587806e91_edges.jpg,2.126984,0.0,edges,,2022-06-10_11h55.44.376,ratings,2022.1.1,Win32,60.0348202
1.526217228,2.8449,-2.677902622,3.7199,0,133,133,216,1,396_208259ea431d47bb7f3946213eb099834eb119756ce304ad473d4d9f_orig.jpg,2.857144,-0.3809524,original,,2022-06-10_11h55.44.376,ratings,2022.1.1,Win32,60.0348202
2.200374532,1.731,-3.146067416,2.6238,0,134,134,217,1,396_208259ea431d47bb7f3946213eb099834eb119756ce304ad473d4d9f_bw.jpg,2.857144,-0.3809524,blackwhite,,2022-06-10_11h55.44.376,ratings,2022.1.1,Win32,60.0348202
-2.200374532,1.7046,0.028089888,2.6871,0,135,135,476,1,748_e519892faa7c772a0afaf9eeff36cf0e411574027ab3d9aa4947a048_edges.jpg,-1.813112,3.307432,edges,,2022-06-10_11h55.44.376,ratings,2022.1.1,Win32,60.0348202
-2.209737828,1.3973,0.468164794,2.1813,0,136,136,272,1,434_ba36d91204d7e578001f6a545d7501e65d209554def5a3c8b7583825_edges.jpg,-3.523808,1.428572,edges,,2022-06-10_11h55.44.376,ratings,2022.1.1,Win32,60.0348202
-2.462546816,1.9538,-0.009363296,2.8696,0,137,137,68,1,172_c641c6c56ca6b594b773084e1363c852abdb65f988d7ff802ee503f2_edges.jpg,0.379572,0.01725328,edges,,2022-06-10_11h55.44.376,ratings,2022.1.1,Win32,60.0348202
-2.762172285,1.3407,0.505617978,2.0764,0,138,138,307,1,455_34a7d8167619d110206c369e3f7dce8a3f99db763a9d8e2b956501d3_bw.jpg,-2.526412,-0.3827896,blackwhite,,2022-06-10_11h55.44.376,ratings,2022.1.1,Win32,60.0348202
-2.368913858,1.3474,0.402621723,2.0112,0,139,139,309,1,455_34a7d8167619d110206c369e3f7dce8a3f99db763a9d8e2b956501d3_blur.jpg,-2.526412,-0.3827896,blurring,,2022-06-10_11h55.44.376,ratings,2022.1.1,Win32,60.0348202
-2.724719101,1.2959,0.168539326,1.9873,0,140,140,323,1,460_e06b3af7ff2f2bfb5f9b6e3d5dc25b9aaa40b84823fac8fd934621bd_circblurext.jpg,-3.430992,-1.607468,circularblurringext,,2022-06-10_11h55.44.376,ratings,2022.1.1,Win32,60.0348202
-2.612359551,1.5371,0.093632959,2.3262,0,141,141,64,1,156_08e8cf8f04630e9213e610580de73f51572d1d589878648700bae4dc_circblurint.jpg,2.222224,0.0,circularblurringint,,2022-06-10_11h55.44.376,ratings,2022.1.1,Win32,60.0348202
-2.406367041,1.2309,-0.018726592,2.0624,0,142,142,592,1,1228_557412d34d6a70b7c5d222e030aa485b351a4574e8ba1a3112d1d13d_circblurint.jpg,2.137444,0.703464,circularblurringint,,2022-06-10_11h55.44.376,ratings,2022.1.1,Win32,60.0348202
0.983146067,1.5143,-2.265917603,2.5782,0,143,143,460,1,720_483c541c48959a597fcf44320941afaf8b7695105f90d65b5f6b30f2_circblurint.jpg,2.158732,-0.2539684,circularblurringint,,2022-06-10_11h55.44.376,ratings,2022.1.1,Win32,60.0348202
-0.823970037,1.4246,-1.348314607,2.7202,0,144,144,568,1,1037_e2eb929a6de79a63ce6cfe5321fcb74a203b134e4094932d90b01d99_circblurint.jpg,2.651956,0.0,circularblurringint,,2022-06-10_11h55.44.376,ratings,2022.1.1,Win32,60.0348202
-2.359550562,1.6914,0.411985019,2.6031,0,145,145,347,1,494_5c6c3b85a2734a43c24bfe337d42ffcc82b7347227804d01c784cef4_circblurext.jpg,0.03871468,0.0,circularblurringext,,2022-06-10_11h55.44.376,ratings,2022.1.1,Win32,60.0348202
-2.350187266,1.0721,0.140449438,2.0479,0,146,146,489,1,818_877aae033c31e3bbca4486321a5307f87cf53c576c546462d3daf194_blur.jpg,-1.277584,0.619436,blurring,,2022-06-10_11h55.44.376,ratings,2022.1.1,Win32,60.0348202
1.376404494,1.7042,-0.983146067,2.8541,0,147,147,143,1,353_44e285740cb41818482ac93fc5fbd72c18029444a1d7506c9fc053e7_circblurext.jpg,-3.232676,-0.87108,circularblurringext,,2022-06-10_11h55.44.376,ratings,2022.1.1,Win32,60.0348202
-0.571161049,1.9634,-0.337078652,3.4914,0,148,148,35,1,60_ad52063167538de24f94d7dfd04808cb94cf8f426c40871d2f126505_circblurext.jpg,2.158732,0.0,circularblurringext,,2022-06-10_11h55.44.376,ratings,2022.1.1,Win32,60.0348202
-1.713483146,1.6984,0.374531835,2.5059,0,149,149,569,1,1037_e2eb929a6de79a63ce6cfe5321fcb74a203b134e4094932d90b01d99_circblurext.jpg,2.651956,0.0,circularblurringext,,2022-06-10_11h55.44.376,ratings,2022.1.1,Win32,60.0348202
-2.799625468,1.5154,1.38576779,2.3074,0,150,150,8,1,28_6318543b74eeb646a1735477ebc023fdc9ac3849bc0db1957c272a26_edges.jpg,2.811244,-0.74584,edges,,2022-06-10_11h55.44.376,ratings,2022.1.1,Win32,60.0348202
-2.06928839,2.4554,0.599250936,3.4315,0,151,151,236,1,410_9633c4ff6e8888fcfca59a60ca86e9606d3e0736500a254101bdf295_edges.jpg,-0.3677892,2.981028,edges,,2022-06-10_11h55.44.376,ratings,2022.1.1,Win32,60.0348202
-2.350187266,1.6962,0.514981273,2.4561,0,152,152,454,1,716_2ab64478147184c4df720a52cf621875addc9007cb2967e4a9a88909_circblurint.jpg,2.428484,0.0,circularblurringint,,2022-06-10_11h55.44.376,ratings,2022.1.1,Win32,60.0348202
-2.696629213,1.6284,-0.149812734,2.3403,0,153,153,17,1,39_2fafccaa4dc69045a05845f59c6b3cd2edcf7e0e0c108b24e553afe0_circblurext.jpg,2.022756,0.463548,circularblurringext,,2022-06-10_11h55.44.376,ratings,2022.1.1,Win32,60.0348202
-2.368913858,3.4264,0.786516854,4.2664,0,154,154,263,1,416_8a1f874e0057d67a4e6955865ba88b2d8ce2c8b4469589307687a723_circblurext.jpg,-1.753336,3.088264,circularblurringext,,2022-06-10_11h55.44.376,ratings,2022.1.1,Win32,60.0348202
-2.237827715,2.1526,-0.131086142,2.862,0,155,155,542,1,1005_b980c0747d20935bc63cc27a9e05ce2ff5bae98f859872ec48edd7f5_edges.jpg,3.428572,-0.476192,edges,,2022-06-10_11h55.44.376,ratings,2022.1.1,Win32,60.0348202
-2.088014981,1.7042,-0.028089888,2.7029,0,156,156,82,1,242_85283f6935a89812ab229dcad9ba184529c9242ac3106d768ecf3ab3_circblurint.jpg,2.14918,-0.2949852,circularblurringint,,2022-06-10_11h55.44.376,ratings,2022.1.1,Win32,60.0348202
-3.361423221,2.524,-0.880149813,4.3561,0,157,157,316,1,459_46e25de472bb056cb470716d30937415f7344bfc4354d6eb710d8c9f_circblurint.jpg,0.03174604,0.0,circularblurringint,,2022-06-10_11h55.44.376,ratings,2022.1.1,Win32,60.0348202
-2.265917603,28.2765,0.140449438,28.9951,0,158,158,491,1,818_877aae033c31e3bbca4486321a5307f87cf53c576c546462d3daf194_circblurext.jpg,-1.277584,0.619436,circularblurringext,,2022-06-10_11h55.44.376,ratings,2022.1.1,Win32,60.0348202
0.777153558,1.7214,-2.275280899,2.7456,0,159,159,276,1,440_9bf7e8609729bf888835168834da6c3ff30b75d0d4f36e2ee6918bcc_orig.jpg,-2.284164,2.710028,original,,2022-06-10_11h55.44.376,ratings,2022.1.1,Win32,60.0348202
-2.34082397,1.5598,-0.15917603,2.2396,0,160,160,125,1,347_27f0e47c2722605b950ccf9fa900f78271e4c3c874064ab5dacac160_circblurext.jpg,1.838948,0.3097172,circularblurringext,,2022-06-10_11h55.44.376,ratings,2022.1.1,Win32,60.0348202
-2.125468165,57.0257,0.280898876,57.6474,0,161,161,267,1,431_ab5a1dbbe9292ac7f74e276cdabcd372e2c1f852ff34bf7cc6646ef8_blur.jpg,3.102584,0.354334,blurring,,2022-06-10_11h55.44.376,ratings,2022.1.1,Win32,60.0348202
-2.968164794,1.3149,0.056179775,2.0033,0,162,162,140,1,353_44e285740cb41818482ac93fc5fbd72c18029444a1d7506c9fc053e7_edges.jpg,-3.232676,-0.87108,edges,,2022-06-10_11h55.44.376,ratings,2022.1.1,Win32,60.0348202
0.945692884,2.1537,-3.005617978,2.9615,0,163,163,187,1,369_c99797771115d7627d4abe3415f814497288f91a7be1a04c17c776b9_bw.jpg,3.619824,-0.174216,blackwhite,,2022-06-10_11h55.44.376,ratings,2022.1.1,Win32,60.0348202
-2.125468165,3.2321,-2.724719101,4.2821,0,164,164,360,1,508_a7a9519cdc7aad6844030f4e6cd96cffd1b9c49b71e20ea52789bda2_orig.jpg,-3.000388,-1.29694,original,,2022-06-10_11h55.44.376,ratings,2022.1.1,Win32,60.0348202
-2.752808989,1.5719,0.63670412,2.3644,0,165,165,161,1,358_157f8ac929713531a15b1ecf115e7b659cb90e83d675251e368d165f_circblurext.jpg,-3.777776,-0.571428,circularblurringext,,2022-06-10_11h55.44.376,ratings,2022.1.1,Win32,60.0348202
-0.252808989,2.471,-0.9082397,3.1263,0,166,166,402,1,686_6745b57686ad5d1bd6cf3e7ed5bc0243a154f8939e88e30321dfcfdb_orig.jpg,-1.523808,3.650792,original,,2022-06-10_11h55.44.376,ratings,2022.1.1,Win32,60.0348202
1.601123596,1.5161,-2.265917603,2.8119,0,167,167,264,1,431_ab5a1dbbe9292ac7f74e276cdabcd372e2c1f852ff34bf7cc6646ef8_orig.jpg,3.102584,0.354334,original,,2022-06-10_11h55.44.376,ratings,2022.1.1,Win32,60.0348202
-2.612359551,1.587,0.046816479,2.5868,0,168,168,190,1,369_c99797771115d7627d4abe3415f814497288f91a7be1a04c17c776b9_circblurint.jpg,3.619824,-0.174216,circularblurringint,,2022-06-10_11h55.44.376,ratings,2022.1.1,Win32,60.0348202
-2.509363296,1.2602,0.093632959,2.044,0,169,169,98,1,267_792043debad81ce271cec5b3c3bd9d264efc13f362bec9c7a3f72fe7_edges.jpg,1.980616,0.2107036,edges,,2022-06-10_11h55.44.376,ratings,2022.1.1,Win32,60.0348202
-2.397003745,1.3784,0.514981273,1.9782,0,170,170,208,1,381_5935a9f9796adce2f1539af6c75bcdc0c80d847a2ce9b77cf59b7672_circblurint.jpg,-1.327432,-0.442476,circularblurringint,,2022-06-10_11h55.44.376,ratings,2022.1.1,Win32,60.0348202
0.870786517,2.0536,-2.116104869,3.2115,0,171,171,109,1,293_3dfdfafc0c6a54b2da7453750ac281f7718c0b3337b0a74c4563d6bd_bw.jpg,-2.574524,2.632596,blackwhite,,2022-06-10_11h55.44.376,ratings,2022.1.1,Win32,60.0348202
2.621722846,1.7396,-3.735955056,2.5476,0,172,172,448,1,709_69c01dcde028a2a1a913f1a2a5026ae1748484f75c89217a040c6791_circblurint.jpg,1.432444,-0.01935732,circularblurringint,,2022-06-10_11h55.44.376,ratings,2022.1.1,Win32,60.0348202
-3.174157303,2.7222,-0.177902622,4.8659,0,173,173,180,1,369_98db62a1bdabfd1bc551180da6658005b461585cd21614633cf76470_orig.jpg,2.190476,-0.03174604,original,,2022-06-10_11h55.44.376,ratings,2022.1.1,Win32,60.0348202
2.031835206,1.6879,-2.462546816,4.0032,0,174,174,283,1,440_dc6413e2b65369ee2587f4d85621742fe4ca87392d0a8ad2ea7d94e3_bw.jpg,-3.016216,1.69404,blackwhite,,2022-06-10_11h55.44.376,ratings,2022.1.1,Win32,60.0348202
2.490636704,1.4204,-3.867041199,3.6532,0,175,175,73,1,236_f645730e1eb06155418c9a571329cc7fa320654fcaaedf1048b5cc11_bw.jpg,2.253968,0.0,blackwhite,,2022-06-10_11h55.44.376,ratings,2022.1.1,Win32,60.0348202
-3.904494382,1.7492,0.674157303,2.5891,0,176,176,183,1,369_98db62a1bdabfd1bc551180da6658005b461585cd21614633cf76470_blur.jpg,2.190476,-0.03174604,blurring,,2022-06-10_11h55.44.376,ratings,2022.1.1,Win32,60.0348202
-3.998127341,2.4307,-0.131086142,3.9029,0,177,177,313,1,459_46e25de472bb056cb470716d30937415f7344bfc4354d6eb710d8c9f_bw.jpg,0.03174604,0.0,blackwhite,,2022-06-10_11h55.44.376,ratings,2022.1.1,Win32,60.0348202
2.209737828,1.7268,-3.277153558,2.7033,0,178,178,145,1,354_e46c3ec6fb00773f64f2bcd212385f253c389808fe724b7cf8611051_bw.jpg,2.018292,0.0,blackwhite,,2022-06-10_11h55.44.376,ratings,2022.1.1,Win32,60.0348202
0.823970037,3.6096,-1.975655431,4.4592,0,179,179,430,1,694_7a14b8ab7c564dcb0f628c4de7f6cb54e4c5f6601f774bf167641c37_circblurint.jpg,1.819588,0.116144,circularblurringint,,2022-06-10_11h55.44.376,ratings,2022.1.1,Win32,60.0348202
1.395131086,1.7894,-2.565543071,2.4771,0,180,180,564,1,1037_e2eb929a6de79a63ce6cfe5321fcb74a203b134e4094932d90b01d99_orig.jpg,2.651956,0.0,original,,2022-06-10_11h55.44.376,ratings,2022.1.1,Win32,60.0348202
1.207865169,1.7325,-2.593632959,2.5566,0,181,181,78,1,242_85283f6935a89812ab229dcad9ba184529c9242ac3106d768ecf3ab3_orig.jpg,2.14918,-0.2949852,original,,2022-06-10_11h55.44.376,ratings,2022.1.1,Win32,60.0348202
-2.631086142,1.4316,0.458801498,2.1119,0,182,182,423,1,692_e3e3bf88684fbbcdb9849a4147f9e2fcd39b0f083554a829aca4e9fa_blur.jpg,-0.44522,3.135888,blurring,,2022-06-10_11h55.44.376,ratings,2022.1.1,Win32,60.0348202
0.449438202,2.1199,-2.734082397,2.757,0,183,183,357,1,500_3b520c7f352afa1a9f8c07e56cc0588cdc04d25ff6e7b602b5e280cb_blur.jpg,-0.8328,3.11766,blurring,,2022-06-10_11h55.44.376,ratings,2022.1.1,Win32,60.0348202
-3.005617978,1.4046,0.617977528,2.237,0,184,184,515,1,858_2f6539ee36aba48c38dc716d4f7c3ae93367d6ddf23ab41745d4172c_circblurext.jpg,0.0623832,0.176752,circularblurringext,,2022-06-10_11h55.44.376,ratings,2022.1.1,Win32,60.0348202
-0.056179775,1.7868,-2.387640449,2.6266,0,185,185,123,1,347_27f0e47c2722605b950ccf9fa900f78271e4c3c874064ab5dacac160_blur.jpg,1.838948,0.3097172,blurring,,2022-06-10_11h55.44.376,ratings,2022.1.1,Win32,60.0348202
-1.54494382,3.0376,0.15917603,3.7198,0,186,186,94,1,258_d26019382777d2159a974a7654923e71598135ce2cd710cea1f92865_circblurint.jpg,3.497684,-0.61104,circularblurringint,,2022-06-10_11h55.44.376,ratings,2022.1.1,Win32,60.0348202
-3.520599251,1.9198,1.348314607,2.7571,0,187,187,364,1,508_a7a9519cdc7aad6844030f4e6cd96cffd1b9c49b71e20ea52789bda2_circblurint.jpg,-3.000388,-1.29694,circularblurringint,,2022-06-10_11h55.44.376,ratings,2022.1.1,Win32,60.0348202
-0.627340824,3.709,-0.683520599,4.3366,0,188,188,133,1,349_8809a67686d34844c915d7700e2ea72ad1c02ae232ae0d3cc0e458d4_bw.jpg,-3.619048,-0.2857144,blackwhite,,2022-06-10_11h55.44.376,ratings,2022.1.1,Win32,60.0348202
-1.104868914,1.2284,-0.664794007,1.7961,0,189,189,384,1,646_577760d718dab44c6f04d77408c5644a120065ce07a9503957d0850a_orig.jpg,-2.690668,2.61324,original,,2022-06-10_11h55.44.376,ratings,2022.1.1,Win32,60.0348202
1.947565543,1.7608,-2.893258427,2.6649,0,190,190,6,1,28_6318543b74eeb646a1735477ebc023fdc9ac3849bc0db1957c272a26_orig.jpg,2.811244,-0.74584,original,,2022-06-10_11h55.44.376,ratings,2022.1.1,Win32,60.0348202
-2.81835206,2.2584,0.47752809,3.2423,0,191,191,222,1,403_57ac47f43882fc031a6067b1a388c0b2cbe8708dcbd2ff1019932eff_orig.jpg,-3.333332,-1.396824,original,,2022-06-10_11h55.44.376,ratings,2022.1.1,Win32,60.0348202
1.376404494,1.482,-2.275280899,2.2658,0,192,192,121,1,347_27f0e47c2722605b950ccf9fa900f78271e4c3c874064ab5dacac160_bw.jpg,1.838948,0.3097172,blackwhite,,2022-06-10_11h55.44.376,ratings,2022.1.1,Win32,60.0348202
-3.08988764,2.1552,0.814606742,3.4271,0,193,193,137,1,349_8809a67686d34844c915d7700e2ea72ad1c02ae232ae0d3cc0e458d4_circblurext.jpg,-3.619048,-0.2857144,circularblurringext,,2022-06-10_11h55.44.376,ratings,2022.1.1,Win32,60.0348202
1.788389513,1.6566,-2.425093633,2.4563,0,194,194,282,1,440_dc6413e2b65369ee2587f4d85621742fe4ca87392d0a8ad2ea7d94e3_orig.jpg,-3.016216,1.69404,original,,2022-06-10_11h55.44.376,ratings,2022.1.1,Win32,60.0348202
1.451310861,2.1101,-2.537453184,3.1368,0,195,195,371,1,616_05a637f5281666f53d4e2ef69351485fc21d629b37ee2006b2076eb6_circblurext.jpg,-2.380952,-0.832364,circularblurringext,,2022-06-10_11h55.44.376,ratings,2022.1.1,Win32,60.0348202
-3.183520599,1.1958,0.421348315,1.9959,0,196,196,353,1,498_305b74cdc4784d9d25e72724302e5402def70177ea31ae7e25fab66b_circblurext.jpg,3.04762,-0.444444,circularblurringext,,2022-06-10_11h55.44.376,ratings,2022.1.1,Win32,60.0348202
-3.792134831,1.9758,-0.187265918,2.5693,0,197,197,361,1,508_a7a9519cdc7aad6844030f4e6cd96cffd1b9c49b71e20ea52789bda2_bw.jpg,-3.000388,-1.29694,blackwhite,,2022-06-10_11h55.44.376,ratings,2022.1.1,Win32,60.0348202
0.093632959,2.0542,-2.490636704,2.8587,0,198,198,331,1,482_a1cd28915c5044c018195ab0fff10dcc95e385246b045a7cd4463ff7_bw.jpg,-3.361852,-1.555612,blackwhite,,2022-06-10_11h55.44.376,ratings,2022.1.1,Win32,60.0348202
-3.77340824,1.3993,0.037453184,2.1267,0,199,199,160,1,358_157f8ac929713531a15b1ecf115e7b659cb90e83d675251e368d165f_circblurint.jpg,-3.777776,-0.571428,circularblurringint,,2022-06-10_11h55.44.376,ratings,2022.1.1,Win32,60.0348202
-2.209737828,2.6701,0.880149813,3.5321,0,200,200,435,1,694_f80f33613b268beffd6c044537cf3b44a84683d6e889bc37b8e9c34b_blur.jpg,-0.3785616,3.34728,blurring,,2022-06-10_11h55.44.376,ratings,2022.1.1,Win32,60.0348202
2.247191011,2.0224,-3.202247191,2.7264,0,201,201,598,1,1239_cee00457f4cfb76a407b12fd5ad714d440a4614c1e5467ee16caf618_circblurint.jpg,-0.03174604,0.190476,circularblurringint,,2022-06-10_11h55.44.376,ratings,2022.1.1,Win32,60.0348202
-2.406367041,1.1272,0.458801498,1.8231,0,202,202,107,1,284_cdcbd54fc995081ac95c8b2c37a19cebb341f61a8eb268cee1623492_circblurext.jpg,-1.015872,2.095236,circularblurringext,,2022-06-10_11h55.44.376,ratings,2022.1.1,Win32,60.0348202
0.758426966,1.8152,-2.162921348,2.6071,0,203,203,24,1,59_8568373b727f29d67ba6ce4c360dd918c8b08b13495fca56bdda5e82_orig.jpg,2.064896,0.505688,original,,2022-06-10_11h55.44.376,ratings,2022.1.1,Win32,60.0348202
-1.694756554,4.7368,-2.003745318,6.4053,0,204,204,312,1,459_46e25de472bb056cb470716d30937415f7344bfc4354d6eb710d8c9f_orig.jpg,0.03174604,0.0,original,,2022-06-10_11h55.44.376,ratings,2022.1.1,Win32,60.0348202
-3.436329588,1.2539,0.533707865,1.7716,0,205,205,500,1,854_081a8409e4d6d10923b2dedcc16a3fca405fcd602e55a20d84cac69d_edges.jpg,3.088264,1.21538,edges,,2022-06-10_11h55.44.376,ratings,2022.1.1,Win32,60.0348202
-3.960674157,1.1273,0.187265918,1.655,0,206,206,453,1,716_2ab64478147184c4df720a52cf621875addc9007cb2967e4a9a88909_blur.jpg,2.428484,0.0,blurring,,2022-06-10_11h55.44.376,ratings,2022.1.1,Win32,60.0348202
0.327715356,4.0116,-2.565543071,4.821,0,207,207,409,1,687_e3b018945792a574962235c88c553b7c318c75eec2596478e8a7b877_bw.jpg,3.63918,-0.42586,blackwhite,,2022-06-10_11h55.44.376,ratings,2022.1.1,Win32,60.0348202
-2.144194757,1.6199,0.730337079,2.2033,0,208,208,105,1,284_cdcbd54fc995081ac95c8b2c37a19cebb341f61a8eb268cee1623492_blur.jpg,-1.015872,2.095236,blurring,,2022-06-10_11h55.44.376,ratings,2022.1.1,Win32,60.0348202
0.252808989,2.6772,-2.574906367,3.5091,0,209,209,155,1,355_00a76f54934d36566dd0e7b091b8aa6a56d8e6b32d349aa578a10b45_circblurext.jpg,2.910052,0.3439152,circularblurringext,,2022-06-10_11h55.44.376,ratings,2022.1.1,Win32,60.0348202
1.479400749,2.1064,-2.368913858,2.8825,0,210,210,450,1,716_2ab64478147184c4df720a52cf621875addc9007cb2967e4a9a88909_orig.jpg,2.428484,0.0,original,,2022-06-10_11h55.44.376,ratings,2022.1.1,Win32,60.0348202
-0.973782772,2.9598,-0.337078652,3.7578,0,211,211,178,1,368_6507b94d7d0199f14efd3706db30c9c44b96085f84e9cc7792e3e0ae_circblurint.jpg,1.959544,0.400336,circularblurringint,,2022-06-10_11h55.44.376,ratings,2022.1.1,Win32,60.0348202
-2.275280899,1.92,0.31835206,2.6471,0,212,212,169,1,365_45a719cabbc9aa308c4fcb30d529489c6966ac4073874af84f665c61_bw.jpg,2.507936,-1.968252,blackwhite,,2022-06-10_11h55.44.376,ratings,2022.1.1,Win32,60.0348202
-3.782771536,1.3424,1.395131086,2.0621,0,213,213,273,1,434_ba36d91204d7e578001f6a545d7501e65d209554def5a3c8b7583825_blur.jpg,-3.523808,1.428572,blurring,,2022-06-10_11h55.44.376,ratings,2022.1.1,Win32,60.0348202
0.739700375,2.1297,-1.75093633,3.1216,0,214,214,60,1,156_08e8cf8f04630e9213e610580de73f51572d1d589878648700bae4dc_orig.jpg,2.222224,0.0,original,,2022-06-10_11h55.44.376,ratings,2022.1.1,Win32,60.0348202
0.805243446,54.0537,-3.56741573,53.13,0,215,215,427,1,694_7a14b8ab7c564dcb0f628c4de7f6cb54e4c5f6601f774bf167641c37_bw.jpg,1.819588,0.116144,blackwhite,,2022-06-10_11h55.44.376,ratings,2022.1.1,Win32,60.0348202
1.001872659,3.4408,-3.024344569,2.5504,0,216,216,75,1,236_f645730e1eb06155418c9a571329cc7fa320654fcaaedf1048b5cc11_blur.jpg,2.253968,0.0,blurring,,2022-06-10_11h55.44.376,ratings,2022.1.1,Win32,60.0348202
-2.893258427,1.2538,0.674157303,1.8617,0,217,217,268,1,431_ab5a1dbbe9292ac7f74e276cdabcd372e2c1f852ff34bf7cc6646ef8_circblurint.jpg,3.102584,0.354334,circularblurringint,,2022-06-10_11h55.44.376,ratings,2022.1.1,Win32,60.0348202
-1.488764045,3.5038,0.421348315,4.0706,0,218,218,18,1,48_2cc936b2483ab2944c9158e163342b874ef6c1492fd8fca08c0e096e_orig.jpg,-1.264224,-0.779604,original,,2022-06-10_11h55.44.376,ratings,2022.1.1,Win32,60.0348202
-2.640449438,2.1743,-0.674157303,2.9417,0,219,219,113,1,293_3dfdfafc0c6a54b2da7453750ac281f7718c0b3337b0a74c4563d6bd_circblurext.jpg,-2.574524,2.632596,circularblurringext,,2022-06-10_11h55.44.376,ratings,2022.1.1,Win32,60.0348202
-2.443820225,2.8416,-0.561797753,3.6735,0,220,220,554,1,1014_a5c212ca979d482cf94c2db7697aba75620391a64b030ab7ad2bbecf_edges.jpg,-3.174604,-1.374372,edges,,2022-06-10_11h55.44.376,ratings,2022.1.1,Win32,60.0348202
-2.911985019,1.1973,-0.009363296,1.8293,0,221,221,200,1,380_34772591c787182a37724027eac6948ebc9d4064f6a601d23b923b8e_edges.jpg,2.222224,-0.063492,edges,,2022-06-10_11h55.44.376,ratings,2022.1.1,Win32,60.0348202
-3.277153558,1.1641,0.205992509,1.8599,0,222,222,392,1,663_aaf52107fe3a86392530d88b34e86f9d2b6820714cad98d1e3c2cb67_edges.jpg,2.58766,0.0918696,edges,,2022-06-10_11h55.44.376,ratings,2022.1.1,Win32,60.0348202
2.088014981,1.4458,-3.689138577,2.3898,0,223,223,119,1,332_4d584229bdae2e1782f77f0e953e528f13c3dfa79b4b94736c0310fa_circblurext.jpg,3.157348,0.483092,circularblurringext,,2022-06-10_11h55.44.376,ratings,2022.1.1,Win32,60.0348202
-1.816479401,1.5366,0.608614232,2.4088,0,224,224,439,1,700_59cb565f134f1afd066d7b6d936c6511b7cb76de0e9cbb5ce15124ad_bw.jpg,0.0,0.0,blackwhite,,2022-06-10_11h55.44.376,ratings,2022.1.1,Win32,60.0348202
1.43258427,1.3649,-2.078651685,1.9568,0,225,225,179,1,368_6507b94d7d0199f14efd3706db30c9c44b96085f84e9cc7792e3e0ae_circblurext.jpg,1.959544,0.400336,circularblurringext,,2022-06-10_11h55.44.376,ratings,2022.1.1,Win32,60.0348202
-1.835205993,1.6412,0.608614232,2.1874,0,226,226,538,1,986_a77edb21e78bc3a6aa7406517824596b3496ad6c657b6befb84cf370_circblurint.jpg,-3.906316,-0.60496,circularblurringint,,2022-06-10_11h55.44.376,ratings,2022.1.1,Win32,60.0348202
1.132958801,1.4144,-2.041198502,2.0455,0,227,227,231,1,407_578d31d32e806706dde2563213f130b90e621abfed0e47ecabd85d27_blur.jpg,3.5873,-0.444444,blurring,,2022-06-10_11h55.44.376,ratings,2022.1.1,Win32,60.0348202
-3.698501873,1.3929,0.945692884,2.3698,0,228,228,394,1,663_aaf52107fe3a86392530d88b34e86f9d2b6820714cad98d1e3c2cb67_circblurint.jpg,2.58766,0.0918696,circularblurringint,,2022-06-10_11h55.44.376,ratings,2022.1.1,Win32,60.0348202
-0.187265918,2.2719,-2.584269663,2.808,0,229,229,493,1,824_b1d91cc824ce0d3d383d3147da88d3d6dbaf6be918bab79e3ec8f501_bw.jpg,-3.645176,-1.432784,blackwhite,,2022-06-10_11h55.44.376,ratings,2022.1.1,Win32,60.0348202
-3.623595506,1.6111,0.683520599,2.5633,0,230,230,417,1,692_7d7eaf20e6de8956f0fca7500ace97a8599aa8b605a7d690cdb28724_blur.jpg,-2.063492,-1.26984,blurring,,2022-06-10_11h55.44.376,ratings,2022.1.1,Win32,60.0348202
-3.810861423,2.3759,0.112359551,3.2545,0,231,231,455,1,716_2ab64478147184c4df720a52cf621875addc9007cb2967e4a9a88909_circblurext.jpg,2.428484,0.0,circularblurringext,,2022-06-10_11h55.44.376,ratings,2022.1.1,Win32,60.0348202
1.151685393,1.5205,-1.732209738,2.1282,0,232,232,198,1,380_34772591c787182a37724027eac6948ebc9d4064f6a601d23b923b8e_orig.jpg,2.222224,-0.063492,original,,2022-06-10_11h55.44.376,ratings,2022.1.1,Win32,60.0348202
1.928838951,1.4372,-2.34082397,2.0123,0,233,233,69,1,172_c641c6c56ca6b594b773084e1363c852abdb65f988d7ff802ee503f2_blur.jpg,0.379572,0.01725328,blurring,,2022-06-10_11h55.44.376,ratings,2022.1.1,Win32,60.0348202
-1.413857678,1.654,-0.327715356,2.238,0,234,234,593,1,1228_557412d34d6a70b7c5d222e030aa485b351a4574e8ba1a3112d1d13d_circblurext.jpg,2.137444,0.703464,circularblurringext,,2022-06-10_11h55.44.376,ratings,2022.1.1,Win32,60.0348202
-2.771535581,1.2743,-0.084269663,2.0658,0,235,235,304,1,453_54f106fd1d4b65fa4aa347407127fc30d49f791e81aee3a0bbe44489_circblurint.jpg,2.222224,0.0,circularblurringint,,2022-06-10_11h55.44.376,ratings,2022.1.1,Win32,60.0348202
-0.15917603,4.9773,-2.284644195,5.82,0,236,236,487,1,818_877aae033c31e3bbca4486321a5307f87cf53c576c546462d3daf194_bw.jpg,-1.277584,0.619436,blackwhite,,2022-06-10_11h55.44.376,ratings,2022.1.1,Win32,60.0348202
-3.539325843,1.3701,0.486891386,1.9702,0,237,237,472,1,741_2b218fb015e3da83db73cacdb52e61e0c2534c1fe255bb1c5c74d47f_circblurint.jpg,3.140096,0.448584,circularblurringint,,2022-06-10_11h55.44.376,ratings,2022.1.1,Win32,60.0348202
-3.670411985,1.1702,0.102996255,2.4311,0,238,238,132,1,349_8809a67686d34844c915d7700e2ea72ad1c02ae232ae0d3cc0e458d4_orig.jpg,-3.619048,-0.2857144,original,,2022-06-10_11h55.44.376,ratings,2022.1.1,Win32,60.0348202
0.205992509,2.8749,-2.237827715,3.955,0,239,239,54,1,137_0e6a04243c0a42a5e2528a2d181255ca2a4b7bd6e7978c5c2059c69f_orig.jpg,-0.95238,2.095236,original,,2022-06-10_11h55.44.376,ratings,2022.1.1,Win32,60.0348202
-3.445692884,1.0937,0.870786517,1.8056,0,240,240,440,1,700_59cb565f134f1afd066d7b6d936c6511b7cb76de0e9cbb5ce15124ad_edges.jpg,0.0,0.0,edges,,2022-06-10_11h55.44.376,ratings,2022.1.1,Win32,60.0348202
-1.891385768,11.8792,-0.093632959,12.6711,0,241,241,583,1,1225_59c67a821456f2cce3e5acf66d7f00076bd02caffc984c1eb0df794e_bw.jpg,-0.444444,3.809524,blackwhite,,2022-06-10_11h55.44.376,ratings,2022.1.1,Win32,60.0348202
1.451310861,1.5116,-3.155430712,2.3276,0,242,242,71,1,172_c641c6c56ca6b594b773084e1363c852abdb65f988d7ff802ee503f2_circblurext.jpg,0.379572,0.01725328,circularblurringext,,2022-06-10_11h55.44.376,ratings,2022.1.1,Win32,60.0348202
-2.958801498,1.4868,0.580524345,3.0138,0,243,243,257,1,416_5eb54976bb41ce2a6d129ef985f792e716f010fb9b69b15f50f5d2db_circblurext.jpg,-2.58766,2.602972,circularblurringext,,2022-06-10_11h55.44.376,ratings,2022.1.1,Win32,60.0348202
0.655430712,1.8818,-2.144194757,2.9137,0,244,244,540,1,1005_b980c0747d20935bc63cc27a9e05ce2ff5bae98f859872ec48edd7f5_orig.jpg,3.428572,-0.476192,original,,2022-06-10_11h55.44.376,ratings,2022.1.1,Win32,60.0348202
-3.099250936,1.2202,1.601123596,1.7228,0,245,245,428,1,694_7a14b8ab7c564dcb0f628c4de7f6cb54e4c5f6601f774bf167641c37_edges.jpg,1.819588,0.116144,edges,,2022-06-10_11h55.44.376,ratings,2022.1.1,Win32,60.0348202
-3.164794007,0.9878,0.505617978,1.7111,0,246,246,525,1,877_cab3efed0c9ff4552037df6c1ea4ea9713f915c94592a14dbf2799da_blur.jpg,3.174604,0.3174604,blurring,,2022-06-10_11h55.44.376,ratings,2022.1.1,Win32,60.0348202
0.533707865,1.5327,-2.602996255,2.1207,0,247,247,61,1,156_08e8cf8f04630e9213e610580de73f51572d1d589878648700bae4dc_bw.jpg,2.222224,0.0,blackwhite,,2022-06-10_11h55.44.376,ratings,2022.1.1,Win32,60.0348202
-3.754681648,1.2381,-0.205992509,1.8781,0,248,248,511,1,858_2f6539ee36aba48c38dc716d4f7c3ae93367d6ddf23ab41745d4172c_bw.jpg,0.0623832,0.176752,blackwhite,,2022-06-10_11h55.44.376,ratings,2022.1.1,Win32,60.0348202
1.498127341,1.5273,-2.593632959,2.3198,0,249,249,469,1,741_2b218fb015e3da83db73cacdb52e61e0c2534c1fe255bb1c5c74d47f_bw.jpg,3.140096,0.448584,blackwhite,,2022-06-10_11h55.44.376,ratings,2022.1.1,Win32,60.0348202
-3.483146067,1.5534,0.552434457,2.2059,0,250,250,255,1,416_5eb54976bb41ce2a6d129ef985f792e716f010fb9b69b15f50f5d2db_blur.jpg,-2.58766,2.602972,blurring,,2022-06-10_11h55.44.376,ratings,2022.1.1,Win32,60.0348202
2.144194757,1.5397,-2.574906367,2.2917,0,251,251,516,1,860_05c4e22518a30d3d2add458a8fc6488f87b9b02dd8e385ded939f025_orig.jpg,1.955092,0.3097172,original,,2022-06-10_11h55.44.376,ratings,2022.1.1,Win32,60.0348202
-3.923220974,1.7662,0.140449438,2.9364,0,252,252,502,1,854_081a8409e4d6d10923b2dedcc16a3fca405fcd602e55a20d84cac69d_circblurint.jpg,3.088264,1.21538,circularblurringint,,2022-06-10_11h55.44.376,ratings,2022.1.1,Win32,60.0348202
-3.45505618,1.5449,0.337078652,2.3373,0,253,253,279,1,440_9bf7e8609729bf888835168834da6c3ff30b75d0d4f36e2ee6918bcc_blur.jpg,-2.284164,2.710028,blurring,,2022-06-10_11h55.44.376,ratings,2022.1.1,Win32,60.0348202
-0.95505618,1.5664,-0.777153558,2.2781,0,254,254,219,1,396_208259ea431d47bb7f3946213eb099834eb119756ce304ad473d4d9f_blur.jpg,2.857144,-0.3809524,blurring,,2022-06-10_11h55.44.376,ratings,2022.1.1,Win32,60.0348202
-3.108614232,2.2149,0.290262172,2.9746,0,255,255,314,1,459_46e25de472bb056cb470716d30937415f7344bfc4354d6eb710d8c9f_edges.jpg,0.03174604,0.0,edges,,2022-06-10_11h55.44.376,ratings,2022.1.1,Win32,60.0348202
2.116104869,1.3263,-3.820224719,2.07,0,256,256,595,1,1239_cee00457f4cfb76a407b12fd5ad714d440a4614c1e5467ee16caf618_bw.jpg,-0.03174604,0.190476,blackwhite,,2022-06-10_11h55.44.376,ratings,2022.1.1,Win32,60.0348202
-3.164794007,1.2768,-0.028089888,1.7645,0,257,257,350,1,498_305b74cdc4784d9d25e72724302e5402def70177ea31ae7e25fab66b_edges.jpg,3.04762,-0.444444,edges,,2022-06-10_11h55.44.376,ratings,2022.1.1,Win32,60.0348202
-3.717228464,1.0699,0.205992509,1.6106,0,258,258,89,1,243_beddb302dcb21071d88c8d2cab07002050d36b3001ef28f89389fa56_circblurext.jpg,-0.3450656,-0.2070392,circularblurringext,,2022-06-10_11h55.44.376,ratings,2022.1.1,Win32,60.0348202
-3.024344569,0.9938,-0.046816479,1.5774,0,259,259,535,1,986_a77edb21e78bc3a6aa7406517824596b3496ad6c657b6befb84cf370_bw.jpg,-3.906316,-0.60496,blackwhite,,2022-06-10_11h55.44.376,ratings,2022.1.1,Win32,60.0348202
-3.801498127,1.1606,-0.149812734,1.9869,0,260,260,587,1,1225_59c67a821456f2cce3e5acf66d7f00076bd02caffc984c1eb0df794e_circblurext.jpg,-0.444444,3.809524,circularblurringext,,2022-06-10_11h55.44.376,ratings,2022.1.1,Win32,60.0348202
0.992509363,1.1297,-1.760299625,2.0032,0,261,261,570,1,1039_d64da8480fc6e94dcdc513237d600570ae0b9fe48795ac6a8b2d29a7_orig.jpg,-2.507936,-1.142856,original,,2022-06-10_11h55.44.376,ratings,2022.1.1,Win32,60.0348202
-2.846441948,1.0422,-0.121722846,1.6259,0,262,262,235,1,410_9633c4ff6e8888fcfca59a60ca86e9606d3e0736500a254101bdf295_bw.jpg,-0.3677892,2.981028,blackwhite,,2022-06-10_11h55.44.376,ratings,2022.1.1,Win32,60.0348202
-1.54494382,1.4463,-0.234082397,1.9662,0,263,263,102,1,284_cdcbd54fc995081ac95c8b2c37a19cebb341f61a8eb268cee1623492_orig.jpg,-1.015872,2.095236,original,,2022-06-10_11h55.44.376,ratings,2022.1.1,Win32,60.0348202
0.880149813,1.7811,-1.488764045,3.6452,0,264,264,220,1,396_208259ea431d47bb7f3946213eb099834eb119756ce304ad473d4d9f_circblurint.jpg,2.857144,-0.3809524,circularblurringint,,2022-06-10_11h55.44.376,ratings,2022.1.1,Win32,60.0348202
1.245318352,1.8318,-1.582397004,2.6958,0,265,265,509,1,855_66d893451dfd1e7615132071c6c8a82b02dc2b37781cd89400883b26_circblurext.jpg,2.69484,0.2143624,circularblurringext,,2022-06-10_11h55.44.376,ratings,2022.1.1,Win32,60.0348202
-3.323970037,1.1444,0.112359551,1.7372,0,266,266,248,1,414_0187bdf7007109b487865b6a9d388997a6817acf052a6a7cdd5b39d9_edges.jpg,-2.786708,-1.133056,edges,,2022-06-10_11h55.44.376,ratings,2022.1.1,Win32,60.0348202
1.217228464,1.6867,-2.097378277,2.3235,0,267,267,7,1,28_6318543b74eeb646a1735477ebc023fdc9ac3849bc0db1957c272a26_bw.jpg,2.811244,-0.74584,blackwhite,,2022-06-10_11h55.44.376,ratings,2022.1.1,Win32,60.0348202
-3.895131086,1.9093,1.058052434,2.4534,0,268,268,122,1,347_27f0e47c2722605b950ccf9fa900f78271e4c3c874064ab5dacac160_edges.jpg,1.838948,0.3097172,edges,,2022-06-10_11h55.44.376,ratings,2022.1.1,Win32,60.0348202
-3.501872659,2.1287,-0.739700375,2.8648,0,269,269,176,1,368_6507b94d7d0199f14efd3706db30c9c44b96085f84e9cc7792e3e0ae_edges.jpg,1.959544,0.400336,edges,,2022-06-10_11h55.44.376,ratings,2022.1.1,Win32,60.0348202
-3.333333333,5.7673,0.973782772,6.521,0,270,270,346,1,494_5c6c3b85a2734a43c24bfe337d42ffcc82b7347227804d01c784cef4_circblurint.jpg,0.03871468,0.0,circularblurringint,,2022-06-10_11h55.44.376,ratings,2022.1.1,Win32,60.0348202
1.404494382,1.1874,-2.584269663,1.8739,0,271,271,177,1,368_6507b94d7d0199f14efd3706db30c9c44b96085f84e9cc7792e3e0ae_blur.jpg,1.959544,0.400336,blurring,,2022-06-10_11h55.44.376,ratings,2022.1.1,Win32,60.0348202
-3.155430712,1.1739,0.074906367,2.0862,0,272,272,308,1,455_34a7d8167619d110206c369e3f7dce8a3f99db763a9d8e2b956501d3_edges.jpg,-2.526412,-0.3827896,edges,,2022-06-10_11h55.44.376,ratings,2022.1.1,Win32,60.0348202
1.076779026,1.9038,-2.116104869,2.7601,0,273,273,223,1,403_57ac47f43882fc031a6067b1a388c0b2cbe8708dcbd2ff1019932eff_bw.jpg,-3.333332,-1.396824,blackwhite,,2022-06-10_11h55.44.376,ratings,2022.1.1,Win32,60.0348202
-1.329588015,1.2757,-0.833333333,1.8534,0,274,274,210,1,394_8e3a0cb945144d53bd1ace04b6256237ed9dcbbd9cb83f8a4886b0e6_orig.jpg,-2.593884,2.651956,original,,2022-06-10_11h55.44.376,ratings,2022.1.1,Win32,60.0348202
1.348314607,2.0547,-3.183520599,3.6712,0,275,275,39,1,82_43f4d5aec7c2e5bd495473f6708a0f2d47c9fe34e1fe9436646cb036_blur.jpg,2.022756,0.505688,blurring,,2022-06-10_11h55.44.376,ratings,2022.1.1,Win32,60.0348202
-1.900749064,1.3037,0.617977528,1.7958,0,276,276,162,1,361_b5541309527dc3c2422f45a95ebb0ed32005e6fe10d0489a1ff1fbdc_orig.jpg,-3.987612,-0.2516452,original,,2022-06-10_11h55.44.376,ratings,2022.1.1,Win32,60.0348202
-3.29588015,1.0882,1.011235955,1.6402,0,277,277,62,1,156_08e8cf8f04630e9213e610580de73f51572d1d589878648700bae4dc_edges.jpg,2.222224,0.0,edges,,2022-06-10_11h55.44.376,ratings,2022.1.1,Win32,60.0348202
-3.323970037,1.0042,0.627340824,1.5298,0,278,278,29,1,59_8568373b727f29d67ba6ce4c360dd918c8b08b13495fca56bdda5e82_circblurext.jpg,2.064896,0.505688,circularblurringext,,2022-06-10_11h55.44.376,ratings,2022.1.1,Win32,60.0348202
-3.164794007,1.0422,0.730337079,1.7141,0,279,279,134,1,349_8809a67686d34844c915d7700e2ea72ad1c02ae232ae0d3cc0e458d4_edges.jpg,-3.619048,-0.2857144,edges,,2022-06-10_11h55.44.376,ratings,2022.1.1,Win32,60.0348202
-3.529962547,1.0105,0.692883895,2.2904,0,280,280,214,1,394_8e3a0cb945144d53bd1ace04b6256237ed9dcbbd9cb83f8a4886b0e6_circblurint.jpg,-2.593884,2.651956,circularblurringint,,2022-06-10_11h55.44.376,ratings,2022.1.1,Win32,60.0348202
1.460674157,1.0465,-1.676029963,1.7263,0,281,281,383,1,640_0ddb4981a5f5842ed5b4f7ef941be53779189df5e718b1fc5475ad80_circblurext.jpg,2.571428,-1.873016,circularblurringext,,2022-06-10_11h55.44.376,ratings,2022.1.1,Win32,60.0348202
2.378277154,1.814,-3.323970037,2.5818,0,282,282,596,1,1239_cee00457f4cfb76a407b12fd5ad714d440a4614c1e5467ee16caf618_edges.jpg,-0.03174604,0.190476,edges,,2022-06-10_11h55.44.376,ratings,2022.1.1,Win32,60.0348202
2.18164794,1.4143,-3.380149813,2.8864,0,283,283,444,1,709_69c01dcde028a2a1a913f1a2a5026ae1748484f75c89217a040c6791_orig.jpg,1.432444,-0.01935732,original,,2022-06-10_11h55.44.376,ratings,2022.1.1,Win32,60.0348202
-3.174157303,1.405,-0.561797753,2.1886,0,284,284,557,1,1014_a5c212ca979d482cf94c2db7697aba75620391a64b030ab7ad2bbecf_circblurext.jpg,-3.174604,-1.374372,circularblurringext,,2022-06-10_11h55.44.376,ratings,2022.1.1,Win32,60.0348202
-3.005617978,15.8607,1.095505618,16.5906,0,285,285,332,1,482_a1cd28915c5044c018195ab0fff10dcc95e385246b045a7cd4463ff7_edges.jpg,-3.361852,-1.555612,edges,,2022-06-10_11h55.44.376,ratings,2022.1.1,Win32,60.0348202
-3.164794007,1.4586,-0.093632959,2.1702,0,286,286,290,1,442_7449d79dae5d652af9b2429872cabdef938646ba024db2f431b3b28d_edges.jpg,1.619048,0.126984,edges,,2022-06-10_11h55.44.376,ratings,2022.1.1,Win32,60.0348202
0.983146067,1.139,-1.985018727,1.6216,0,287,287,579,1,1061_665178b9cb0bc869cc2e2b68def4838db04e66f9531098fb75875a09_blur.jpg,0.3492064,-0.3174604,blurring,,2022-06-10_11h55.44.376,ratings,2022.1.1,Win32,60.0348202
1.741573034,1.1698,-2.284644195,1.9048,0,288,288,507,1,855_66d893451dfd1e7615132071c6c8a82b02dc2b37781cd89400883b26_blur.jpg,2.69484,0.2143624,blurring,,2022-06-10_11h55.44.376,ratings,2022.1.1,Win32,60.0348202
-2.846441948,1.6868,0.496254682,3.26,0,289,289,44,1,92_5d20d78a8e57e628c6930676473a4e0a485e715841efd6286c660020_edges.jpg,2.126984,0.0,edges,,2022-06-10_11h55.44.376,ratings,2022.1.1,Win32,60.0348202
-1.741573034,1.387,0.234082397,1.9139,0,290,290,250,1,414_0187bdf7007109b487865b6a9d388997a6817acf052a6a7cdd5b39d9_circblurint.jpg,-2.786708,-1.133056,circularblurringint,,2022-06-10_11h55.44.376,ratings,2022.1.1,Win32,60.0348202
-3.548689139,1.0492,0.47752809,1.6091,0,291,291,14,1,39_2fafccaa4dc69045a05845f59c6b3cd2edcf7e0e0c108b24e553afe0_edges.jpg,2.022756,0.463548,edges,,2022-06-10_11h55.44.376,ratings,2022.1.1,Win32,60.0348202
2.209737828,1.8143,-2.565543071,2.6143,0,292,292,337,1,492_a1a4d288d3bc486c83c3b6a835c42891989f5ba781633932298a7676_bw.jpg,3.406892,-0.44522,blackwhite,,2022-06-10_11h55.44.376,ratings,2022.1.1,Win32,60.0348202
2.322097378,1.4141,-3.164794007,2.3532,0,293,293,456,1,720_483c541c48959a597fcf44320941afaf8b7695105f90d65b5f6b30f2_orig.jpg,2.158732,-0.2539684,original,,2022-06-10_11h55.44.376,ratings,2022.1.1,Win32,60.0348202
0.084269663,1.3629,-1.423220974,1.9948,0,294,294,425,1,692_e3e3bf88684fbbcdb9849a4147f9e2fcd39b0f083554a829aca4e9fa_circblurext.jpg,-0.44522,3.135888,circularblurringext,,2022-06-10_11h55.44.376,ratings,2022.1.1,Win32,60.0348202
-3.960674157,1.1701,0.945692884,1.7763,0,295,295,319,1,460_e06b3af7ff2f2bfb5f9b6e3d5dc25b9aaa40b84823fac8fd934621bd_bw.jpg,-3.430992,-1.607468,blackwhite,,2022-06-10_11h55.44.376,ratings,2022.1.1,Win32,60.0348202
-1.104868914,2.0883,-0.917602996,2.8723,0,296,296,288,1,442_7449d79dae5d652af9b2429872cabdef938646ba024db2f431b3b28d_orig.jpg,1.619048,0.126984,original,,2022-06-10_11h55.44.376,ratings,2022.1.1,Win32,60.0348202
1.629213483,1.2033,-1.676029963,1.9931,0,297,297,19,1,48_2cc936b2483ab2944c9158e163342b874ef6c1492fd8fca08c0e096e_bw.jpg,-1.264224,-0.779604,blackwhite,,2022-06-10_11h55.44.376,ratings,2022.1.1,Win32,60.0348202
-3.24906367,2.1072,-0.187265918,2.8197,0,298,298,334,1,482_a1cd28915c5044c018195ab0fff10dcc95e385246b045a7cd4463ff7_circblurint.jpg,-3.361852,-1.555612,circularblurringint,,2022-06-10_11h55.44.376,ratings,2022.1.1,Win32,60.0348202
-1.338951311,3.4446,-2.294007491,2.0285,0,299,299,471,1,741_2b218fb015e3da83db73cacdb52e61e0c2534c1fe255bb1c5c74d47f_blur.jpg,3.140096,0.448584,blurring,,2022-06-10_11h55.44.376,ratings,2022.1.1,Win32,60.0348202
2.059925094,1.1032,-3.707865169,6.9925,0,300,300,505,1,855_66d893451dfd1e7615132071c6c8a82b02dc2b37781cd89400883b26_bw.jpg,2.69484,0.2143624,blackwhite,,2022-06-10_11h55.44.376,ratings,2022.1.1,Win32,60.0348202
-2.312734082,4.0637,0.177902622,4.8735,0,301,301,416,1,692_7d7eaf20e6de8956f0fca7500ace97a8599aa8b605a7d690cdb28724_edges.jpg,-2.063492,-1.26984,edges,,2022-06-10_11h55.44.376,ratings,2022.1.1,Win32,60.0348202
-3.024344569,1.0635,0.58988764,1.5366,0,302,302,99,1,267_792043debad81ce271cec5b3c3bd9d264efc13f362bec9c7a3f72fe7_blur.jpg,1.980616,0.2107036,blurring,,2022-06-10_11h55.44.376,ratings,2022.1.1,Win32,60.0348202
-0.543071161,1.4067,-1.048689139,1.9531,0,303,303,354,1,500_3b520c7f352afa1a9f8c07e56cc0588cdc04d25ff6e7b602b5e280cb_orig.jpg,-0.8328,3.11766,original,,2022-06-10_11h55.44.376,ratings,2022.1.1,Win32,60.0348202
0.440074906,1.4456,-1.956928839,1.9813,0,304,304,545,1,1005_b980c0747d20935bc63cc27a9e05ce2ff5bae98f859872ec48edd7f5_circblurext.jpg,3.428572,-0.476192,circularblurringext,,2022-06-10_11h55.44.376,ratings,2022.1.1,Win32,60.0348202
-3.604868914,0.9647,1.029962547,1.6126,0,305,305,230,1,407_578d31d32e806706dde2563213f130b90e621abfed0e47ecabd85d27_edges.jpg,3.5873,-0.444444,edges,,2022-06-10_11h55.44.376,ratings,2022.1.1,Win32,60.0348202
-3.792134831,1.254,0.402621723,1.942,0,306,306,88,1,243_beddb302dcb21071d88c8d2cab07002050d36b3001ef28f89389fa56_circblurint.jpg,-0.3450656,-0.2070392,circularblurringint,,2022-06-10_11h55.44.376,ratings,2022.1.1,Win32,60.0348202
0.514981273,1.3532,-2.209737828,1.9107,0,307,307,369,1,616_05a637f5281666f53d4e2ef69351485fc21d629b37ee2006b2076eb6_blur.jpg,-2.380952,-0.832364,blurring,,2022-06-10_11h55.44.376,ratings,2022.1.1,Win32,60.0348202
1.189138577,1.2142,-1.638576779,1.7742,0,308,308,379,1,640_0ddb4981a5f5842ed5b4f7ef941be53779189df5e718b1fc5475ad80_bw.jpg,2.571428,-1.873016,blackwhite,,2022-06-10_11h55.44.376,ratings,2022.1.1,Win32,60.0348202
-2.65917603,1.3473,0.383895131,1.9877,0,309,309,317,1,459_46e25de472bb056cb470716d30937415f7344bfc4354d6eb710d8c9f_circblurext.jpg,0.03174604,0.0,circularblurringext,,2022-06-10_11h55.44.376,ratings,2022.1.1,Win32,60.0348202
-0.514981273,1.2443,-1.048689139,1.7878,0,310,310,465,1,736_bb85db1bcda8eb34299aa5791ac65a0a7c343266eb2d6e6e328ec0e1_blur.jpg,3.650792,-0.03174604,blurring,,2022-06-10_11h55.44.376,ratings,2022.1.1,Win32,60.0348202
0.561797753,2.8429,0.758426966,4.6209,0,311,311,1,1,13_771f4fcf0a212d25d6a78565e7f34cc5ddd823e7afbdc77ef063326e_bw.jpg,2.190476,0.0,blackwhite,,2022-06-10_11h55.44.376,ratings,2022.1.1,Win32,60.0348202
-3.099250936,1.3313,0.870786517,2.0868,0,312,312,194,1,379_eeaa6d9bf5a4ef205dc48bc505cf3a7f24ea86e99af9b371e03602a7_edges.jpg,-0.3926308,2.88936,edges,,2022-06-10_11h55.44.376,ratings,2022.1.1,Win32,60.0348202
0.215355805,1.6866,-1.891385768,2.3032,0,313,313,172,1,365_45a719cabbc9aa308c4fcb30d529489c6966ac4073874af84f665c61_circblurint.jpg,2.507936,-1.968252,circularblurringint,,2022-06-10_11h55.44.376,ratings,2022.1.1,Win32,60.0348202
-2.846441948,1.3133,0.898876404,2.1052,0,314,314,327,1,468_8b69b13120daebadd8a4a3166e1419f2404395cba231307a4efa9fde_blur.jpg,2.031744,0.2539684,blurring,,2022-06-10_11h55.44.376,ratings,2022.1.1,Win32,60.0348202
-1.985018727,1.7901,0.402621723,2.3258,0,315,315,553,1,1014_a5c212ca979d482cf94c2db7697aba75620391a64b030ab7ad2bbecf_bw.jpg,-3.174604,-1.374372,blackwhite,,2022-06-10_11h55.44.376,ratings,2022.1.1,Win32,60.0348202
-1.966292135,4.4978,-1.676029963,2.6578,0,316,316,526,1,877_cab3efed0c9ff4552037df6c1ea4ea9713f915c94592a14dbf2799da_circblurint.jpg,3.174604,0.3174604,circularblurringint,,2022-06-10_11h55.44.376,ratings,2022.1.1,Win32,60.0348202
0.187265918,1.9052,-1.938202247,2.5293,0,317,317,467,1,736_bb85db1bcda8eb34299aa5791ac65a0a7c343266eb2d6e6e328ec0e1_circblurext.jpg,3.650792,-0.03174604,circularblurringext,,2022-06-10_11h55.44.376,ratings,2022.1.1,Win32,60.0348202
-1.11423221,1.77,-0.945692884,2.3371,0,318,318,96,1,267_792043debad81ce271cec5b3c3bd9d264efc13f362bec9c7a3f72fe7_orig.jpg,1.980616,0.2107036,original,,2022-06-10_11h55.44.376,ratings,2022.1.1,Win32,60.0348202
-2.256554307,1.3116,0.599250936,2.1755,0,319,319,153,1,355_00a76f54934d36566dd0e7b091b8aa6a56d8e6b32d349aa578a10b45_blur.jpg,2.910052,0.3439152,blurring,,2022-06-10_11h55.44.376,ratings,2022.1.1,Win32,60.0348202
-3.398876404,1.5739,1.039325843,2.2292,0,320,320,406,1,686_6745b57686ad5d1bd6cf3e7ed5bc0243a154f8939e88e30321dfcfdb_circblurint.jpg,-1.523808,3.650792,circularblurringint,,2022-06-10_11h55.44.376,ratings,2022.1.1,Win32,60.0348202
1.254681648,2.3589,-1.38576779,2.9699,0,321,321,93,1,258_d26019382777d2159a974a7654923e71598135ce2cd710cea1f92865_blur.jpg,3.497684,-0.61104,blurring,,2022-06-10_11h55.44.376,ratings,2022.1.1,Win32,60.0348202
-0.486891386,3.9937,-1.048689139,4.6819,0,322,322,574,1,1039_d64da8480fc6e94dcdc513237d600570ae0b9fe48795ac6a8b2d29a7_circblurint.jpg,-2.507936,-1.142856,circularblurringint,,2022-06-10_11h55.44.376,ratings,2022.1.1,Win32,60.0348202
0.449438202,3.5817,-2.471910112,4.1975,0,323,323,253,1,416_5eb54976bb41ce2a6d129ef985f792e716f010fb9b69b15f50f5d2db_bw.jpg,-2.58766,2.602972,blackwhite,,2022-06-10_11h55.44.376,ratings,2022.1.1,Win32,60.0348202
0.973782772,1.3867,-1.507490637,2.2658,0,324,324,124,1,347_27f0e47c2722605b950ccf9fa900f78271e4c3c874064ab5dacac160_circblurint.jpg,1.838948,0.3097172,circularblurringint,,2022-06-10_11h55.44.376,ratings,2022.1.1,Win32,60.0348202
2.247191011,2.3478,-3.342696629,3.1077,0,325,325,116,1,332_4d584229bdae2e1782f77f0e953e528f13c3dfa79b4b94736c0310fa_edges.jpg,3.157348,0.483092,edges,,2022-06-10_11h55.44.376,ratings,2022.1.1,Win32,60.0348202
-3.417602996,1.1318,0.702247191,2.0918,0,326,326,374,1,620_9674719009d75dcfeaed7f15932c43e1fd1af5e25d47b8aadd61efe2_edges.jpg,-0.561364,1.142084,edges,,2022-06-10_11h55.44.376,ratings,2022.1.1,Win32,60.0348202
-1.376404494,1.5036,0.627340824,2.0762,0,327,327,249,1,414_0187bdf7007109b487865b6a9d388997a6817acf052a6a7cdd5b39d9_blur.jpg,-2.786708,-1.133056,blurring,,2022-06-10_11h55.44.376,ratings,2022.1.1,Win32,60.0348202
-0.79588015,1.1059,0.95505618,2.3938,0,328,328,106,1,284_cdcbd54fc995081ac95c8b2c37a19cebb341f61a8eb268cee1623492_circblurint.jpg,-1.015872,2.095236,circularblurringint,,2022-06-10_11h55.44.376,ratings,2022.1.1,Win32,60.0348202
1.020599251,1.8203,-1.06741573,2.7369,0,329,329,359,1,500_3b520c7f352afa1a9f8c07e56cc0588cdc04d25ff6e7b602b5e280cb_circblurext.jpg,-0.8328,3.11766,circularblurringext,,2022-06-10_11h55.44.376,ratings,2022.1.1,Win32,60.0348202
-3.876404494,2.0932,0.739700375,3.0612,0,330,330,403,1,686_6745b57686ad5d1bd6cf3e7ed5bc0243a154f8939e88e30321dfcfdb_bw.jpg,-1.523808,3.650792,blackwhite,,2022-06-10_11h55.44.376,ratings,2022.1.1,Win32,60.0348202
0.337078652,2.6304,-1.619850187,3.5106,0,331,331,372,1,620_9674719009d75dcfeaed7f15932c43e1fd1af5e25d47b8aadd61efe2_orig.jpg,-0.561364,1.142084,original,,2022-06-10_11h55.44.376,ratings,2022.1.1,Win32,60.0348202
0.823970037,2.4906,-1.938202247,3.2199,0,332,332,523,1,877_cab3efed0c9ff4552037df6c1ea4ea9713f915c94592a14dbf2799da_bw.jpg,3.174604,0.3174604,blackwhite,,2022-06-10_11h55.44.376,ratings,2022.1.1,Win32,60.0348202
-3.707865169,1.2234,0.674157303,2.0475,0,333,333,280,1,440_9bf7e8609729bf888835168834da6c3ff30b75d0d4f36e2ee6918bcc_circblurint.jpg,-2.284164,2.710028,circularblurringint,,2022-06-10_11h55.44.376,ratings,2022.1.1,Win32,60.0348202
-0.580524345,3.5783,-0.992509363,4.2924,0,334,334,490,1,818_877aae033c31e3bbca4486321a5307f87cf53c576c546462d3daf194_circblurint.jpg,-1.277584,0.619436,circularblurringint,,2022-06-10_11h55.44.376,ratings,2022.1.1,Win32,60.0348202
-3.417602996,1.2812,1.367041199,1.9536,0,335,335,414,1,692_7d7eaf20e6de8956f0fca7500ace97a8599aa8b605a7d690cdb28724_orig.jpg,-2.063492,-1.26984,original,,2022-06-10_11h55.44.376,ratings,2022.1.1,Win32,60.0348202
-3.380149813,1.1199,1.310861423,1.8053,0,336,336,434,1,694_f80f33613b268beffd6c044537cf3b44a84683d6e889bc37b8e9c34b_edges.jpg,-0.3785616,3.34728,edges,,2022-06-10_11h55.44.376,ratings,2022.1.1,Win32,60.0348202
0.299625468,1.5118,-1.5917603,2.636,0,337,337,591,1,1228_557412d34d6a70b7c5d222e030aa485b351a4574e8ba1a3112d1d13d_blur.jpg,2.137444,0.703464,blurring,,2022-06-10_11h55.44.376,ratings,2022.1.1,Win32,60.0348202
-3.595505618,1.0823,0.852059925,1.8259,0,338,338,87,1,243_beddb302dcb21071d88c8d2cab07002050d36b3001ef28f89389fa56_blur.jpg,-0.3450656,-0.2070392,blurring,,2022-06-10_11h55.44.376,ratings,2022.1.1,Win32,60.0348202
-3.398876404,2.5267,0.327715356,3.556,0,339,339,166,1,361_b5541309527dc3c2422f45a95ebb0ed32005e6fe10d0489a1ff1fbdc_circblurint.jpg,-3.987612,-0.2516452,circularblurringint,,2022-06-10_11h55.44.376,ratings,2022.1.1,Win32,60.0348202
1.956928839,1.5535,-3.436329588,2.329,0,340,340,336,1,492_a1a4d288d3bc486c83c3b6a835c42891989f5ba781633932298a7676_orig.jpg,3.406892,-0.44522,original,,2022-06-10_11h55.44.376,ratings,2022.1.1,Win32,60.0348202
-1.282771536,1.6426,0.374531835,2.2898,0,341,341,412,1,687_e3b018945792a574962235c88c553b7c318c75eec2596478e8a7b877_circblurint.jpg,3.63918,-0.42586,circularblurringint,,2022-06-10_11h55.44.376,ratings,2022.1.1,Win32,60.0348202
-3.72659176,2.5713,-1.844569288,4.0915,0,342,342,498,1,854_081a8409e4d6d10923b2dedcc16a3fca405fcd602e55a20d84cac69d_orig.jpg,3.088264,1.21538,original,,2022-06-10_11h55.44.376,ratings,2022.1.1,Win32,60.0348202
-3.277153558,1.3102,1.741573034,1.8866,0,343,343,419,1,692_7d7eaf20e6de8956f0fca7500ace97a8599aa8b605a7d690cdb28724_circblurext.jpg,-2.063492,-1.26984,circularblurringext,,2022-06-10_11h55.44.376,ratings,2022.1.1,Win32,60.0348202
-3.286516854,1.0796,1.095505618,1.7114,0,344,344,512,1,858_2f6539ee36aba48c38dc716d4f7c3ae93367d6ddf23ab41745d4172c_edges.jpg,0.0623832,0.176752,edges,,2022-06-10_11h55.44.376,ratings,2022.1.1,Win32,60.0348202
0.374531835,3.0662,-0.47752809,3.8203,0,345,345,141,1,353_44e285740cb41818482ac93fc5fbd72c18029444a1d7506c9fc053e7_blur.jpg,-3.232676,-0.87108,blurring,,2022-06-10_11h55.44.376,ratings,2022.1.1,Win32,60.0348202
0.720973783,1.22,-0.421348315,1.8275,0,346,346,199,1,380_34772591c787182a37724027eac6948ebc9d4064f6a601d23b923b8e_bw.jpg,2.222224,-0.063492,blackwhite,,2022-06-10_11h55.44.376,ratings,2022.1.1,Win32,60.0348202
0.608614232,1.312,-0.47752809,1.8961,0,347,347,486,1,818_877aae033c31e3bbca4486321a5307f87cf53c576c546462d3daf194_orig.jpg,-1.277584,0.619436,original,,2022-06-10_11h55.44.376,ratings,2022.1.1,Win32,60.0348202
-1.994382022,1.1739,-0.028089888,1.7818,0,348,348,481,1,759_95e1c46ed9a337414d5c8eada8fa8b9632e18751f5ce6ed587806e91_bw.jpg,2.126984,0.0,blackwhite,,2022-06-10_11h55.44.376,ratings,2022.1.1,Win32,60.0348202
-3.230337079,1.1408,0.964419476,1.7404,0,349,349,368,1,616_05a637f5281666f53d4e2ef69351485fc21d629b37ee2006b2076eb6_edges.jpg,-2.380952,-0.832364,edges,,2022-06-10_11h55.44.376,ratings,2022.1.1,Win32,60.0348202
0.065543071,2.2928,-0.983146067,3.0207,0,350,350,10,1,28_6318543b74eeb646a1735477ebc023fdc9ac3849bc0db1957c272a26_circblurint.jpg,2.811244,-0.74584,circularblurringint,,2022-06-10_11h55.44.376,ratings,2022.1.1,Win32,60.0348202
-0.814606742,1.5571,-0.355805243,2.1571,0,351,351,571,1,1039_d64da8480fc6e94dcdc513237d600570ae0b9fe48795ac6a8b2d29a7_bw.jpg,-2.507936,-1.142856,blackwhite,,2022-06-10_11h55.44.376,ratings,2022.1.1,Win32,60.0348202
-1.947565543,1.6246,0.065543071,2.4029,0,352,352,148,1,354_e46c3ec6fb00773f64f2bcd212385f253c389808fe724b7cf8611051_circblurint.jpg,2.018292,0.0,circularblurringint,,2022-06-10_11h55.44.376,ratings,2022.1.1,Win32,60.0348202
-0.365168539,1.4037,-1.320224719,1.9543,0,353,353,159,1,358_157f8ac929713531a15b1ecf115e7b659cb90e83d675251e368d165f_blur.jpg,-3.777776,-0.571428,blurring,,2022-06-10_11h55.44.376,ratings,2022.1.1,Win32,60.0348202
-2.855805243,1.3534,0.95505618,2.0456,0,354,354,213,1,394_8e3a0cb945144d53bd1ace04b6256237ed9dcbbd9cb83f8a4886b0e6_blur.jpg,-2.593884,2.651956,blurring,,2022-06-10_11h55.44.376,ratings,2022.1.1,Win32,60.0348202
-3.56741573,1.0969,0.234082397,1.753,0,355,355,405,1,686_6745b57686ad5d1bd6cf3e7ed5bc0243a154f8939e88e30321dfcfdb_blur.jpg,-1.523808,3.650792,blurring,,2022-06-10_11h55.44.376,ratings,2022.1.1,Win32,60.0348202
0.009363296,1.3543,-1.395131086,1.8546,0,356,356,411,1,687_e3b018945792a574962235c88c553b7c318c75eec2596478e8a7b877_blur.jpg,3.63918,-0.42586,blurring,,2022-06-10_11h55.44.376,ratings,2022.1.1,Win32,60.0348202
-3.45505618,1.3654,0.365168539,2.3251,0,357,357,286,1,440_dc6413e2b65369ee2587f4d85621742fe4ca87392d0a8ad2ea7d94e3_circblurint.jpg,-3.016216,1.69404,circularblurringint,,2022-06-10_11h55.44.376,ratings,2022.1.1,Win32,60.0348202
1.638576779,1.9414,-1.189138577,2.5652,0,358,358,580,1,1061_665178b9cb0bc869cc2e2b68def4838db04e66f9531098fb75875a09_circblurint.jpg,0.3492064,-0.3174604,circularblurringint,,2022-06-10_11h55.44.376,ratings,2022.1.1,Win32,60.0348202
-3.071161049,1.2365,1.104868914,1.8968,0,359,359,170,1,365_45a719cabbc9aa308c4fcb30d529489c6966ac4073874af84f665c61_edges.jpg,2.507936,-1.968252,edges,,2022-06-10_11h55.44.376,ratings,2022.1.1,Win32,60.0348202
-1.554307116,2.7367,0.599250936,3.353,0,360,360,306,1,455_34a7d8167619d110206c369e3f7dce8a3f99db763a9d8e2b956501d3_orig.jpg,-2.526412,-0.3827896,original,,2022-06-10_11h55.44.376,ratings,2022.1.1,Win32,60.0348202
0.290262172,1.3585,-1.779026217,1.9531,0,361,361,271,1,434_ba36d91204d7e578001f6a545d7501e65d209554def5a3c8b7583825_bw.jpg,-3.523808,1.428572,blackwhite,,2022-06-10_11h55.44.376,ratings,2022.1.1,Win32,60.0348202
0.533707865,1.2104,-1.507490637,1.9224,0,362,362,47,1,92_5d20d78a8e57e628c6930676473a4e0a485e715841efd6286c660020_circblurext.jpg,2.126984,0.0,circularblurringext,,2022-06-10_11h55.44.376,ratings,2022.1.1,Win32,60.0348202
-3.661048689,1.0972,2.059925094,1.793,0,363,363,326,1,468_8b69b13120daebadd8a4a3166e1419f2404395cba231307a4efa9fde_edges.jpg,2.031744,0.2539684,edges,,2022-06-10_11h55.44.376,ratings,2022.1.1,Win32,60.0348202
1.38576779,1.9027,-1.235955056,3.4614,0,364,364,399,1,683_a004ad18331da968da5debdd15e1447dd7748750af0bc6c57b844200_blur.jpg,-2.91956,2.466524,blurring,,2022-06-10_11h55.44.376,ratings,2022.1.1,Win32,60.0348202
-3.529962547,0.9713,0.852059925,1.5951,0,365,365,146,1,354_e46c3ec6fb00773f64f2bcd212385f253c389808fe724b7cf8611051_edges.jpg,2.018292,0.0,edges,,2022-06-10_11h55.44.376,ratings,2022.1.1,Win32,60.0348202
0.168539326,1.6797,-1.825842697,2.7036,0,366,366,289,1,442_7449d79dae5d652af9b2429872cabdef938646ba024db2f431b3b28d_bw.jpg,1.619048,0.126984,blackwhite,,2022-06-10_11h55.44.376,ratings,2022.1.1,Win32,60.0348202
-2.125468165,1.1166,0.065543071,1.7321,0,367,367,74,1,236_f645730e1eb06155418c9a571329cc7fa320654fcaaedf1048b5cc11_edges.jpg,2.253968,0.0,edges,,2022-06-10_11h55.44.376,ratings,2022.1.1,Win32,60.0348202
-2.509363296,3.3873,-0.224719101,3.9415,0,368,368,246,1,414_0187bdf7007109b487865b6a9d388997a6817acf052a6a7cdd5b39d9_orig.jpg,-2.786708,-1.133056,original,,2022-06-10_11h55.44.376,ratings,2022.1.1,Win32,60.0348202
-3.230337079,1.0533,0.290262172,1.6874,0,369,369,318,1,460_e06b3af7ff2f2bfb5f9b6e3d5dc25b9aaa40b84823fac8fd934621bd_orig.jpg,-3.430992,-1.607468,original,,2022-06-10_11h55.44.376,ratings,2022.1.1,Win32,60.0348202
1.301498127,1.4733,-1.498127341,2.4411,0,370,370,227,1,403_57ac47f43882fc031a6067b1a388c0b2cbe8708dcbd2ff1019932eff_circblurext.jpg,-3.333332,-1.396824,circularblurringext,,2022-06-10_11h55.44.376,ratings,2022.1.1,Win32,60.0348202
1.956928839,1.5156,-0.95505618,2.0912,0,371,371,144,1,354_e46c3ec6fb00773f64f2bcd212385f253c389808fe724b7cf8611051_orig.jpg,2.018292,0.0,original,,2022-06-10_11h55.44.376,ratings,2022.1.1,Win32,60.0348202
0.102996255,1.8594,-1.451310861,2.9031,0,372,372,0,1,13_771f4fcf0a212d25d6a78565e7f34cc5ddd823e7afbdc77ef063326e_orig.jpg,2.190476,0.0,original,,2022-06-10_11h55.44.376,ratings,2022.1.1,Win32,60.0348202
-3.389513109,2.1559,0.411985019,2.7558,0,373,373,302,1,453_54f106fd1d4b65fa4aa347407127fc30d49f791e81aee3a0bbe44489_edges.jpg,2.222224,0.0,edges,,2022-06-10_11h55.44.376,ratings,2022.1.1,Win32,60.0348202
-3.867041199,1.2706,1.189138577,1.8706,0,374,374,470,1,741_2b218fb015e3da83db73cacdb52e61e0c2534c1fe255bb1c5c74d47f_edges.jpg,3.140096,0.448584,edges,,2022-06-10_11h55.44.376,ratings,2022.1.1,Win32,60.0348202
-3.352059925,0.925,0.58988764,1.7412,0,375,375,129,1,349_18d92ef5c21ca70a3dd237aad251594e1688bbe01d8cff37b89c46b8_blur.jpg,-2.74874,-1.258228,blurring,,2022-06-10_11h55.44.376,ratings,2022.1.1,Win32,60.0348202
-3.473782772,1.0879,0.814606742,1.8722,0,376,376,261,1,416_8a1f874e0057d67a4e6955865ba88b2d8ce2c8b4469589307687a723_blur.jpg,-1.753336,3.088264,blurring,,2022-06-10_11h55.44.376,ratings,2022.1.1,Win32,60.0348202
0.262172285,4.9253,-1.348314607,5.7417,0,377,377,466,1,736_bb85db1bcda8eb34299aa5791ac65a0a7c343266eb2d6e6e328ec0e1_circblurint.jpg,3.650792,-0.03174604,circularblurringint,,2022-06-10_11h55.44.376,ratings,2022.1.1,Win32,60.0348202
-0.121722846,1.3075,-1.020599251,1.9556,0,378,378,375,1,620_9674719009d75dcfeaed7f15932c43e1fd1af5e25d47b8aadd61efe2_blur.jpg,-0.561364,1.142084,blurring,,2022-06-10_11h55.44.376,ratings,2022.1.1,Win32,60.0348202
1.198501873,1.2779,-1.11423221,1.8459,0,379,379,274,1,434_ba36d91204d7e578001f6a545d7501e65d209554def5a3c8b7583825_circblurint.jpg,-3.523808,1.428572,circularblurringint,,2022-06-10_11h55.44.376,ratings,2022.1.1,Win32,60.0348202
-2.565543071,0.8645,0.449438202,1.3923,0,380,380,25,1,59_8568373b727f29d67ba6ce4c360dd918c8b08b13495fca56bdda5e82_bw.jpg,2.064896,0.505688,blackwhite,,2022-06-10_11h55.44.376,ratings,2022.1.1,Win32,60.0348202
-0.383895131,2.6701,0.280898876,4.3317,0,381,381,549,1,1010_06d15f44b979c086561137000ec070ba4cd479856f92840a7850b2bf_blur.jpg,0.189786,-0.189786,blurring,,2022-06-10_11h55.44.376,ratings,2022.1.1,Win32,60.0348202
-0.814606742,1.4541,-0.599250936,2.2383,0,382,382,437,1,694_f80f33613b268beffd6c044537cf3b44a84683d6e889bc37b8e9c34b_circblurext.jpg,-0.3785616,3.34728,circularblurringext,,2022-06-10_11h55.44.376,ratings,2022.1.1,Win32,60.0348202
1.104868914,1.9203,-1.91011236,2.5649,0,383,383,395,1,663_aaf52107fe3a86392530d88b34e86f9d2b6820714cad98d1e3c2cb67_circblurext.jpg,2.58766,0.0918696,circularblurringext,,2022-06-10_11h55.44.376,ratings,2022.1.1,Win32,60.0348202
-1.676029963,1.8201,0.074906367,3.1366,0,384,384,436,1,694_f80f33613b268beffd6c044537cf3b44a84683d6e889bc37b8e9c34b_circblurint.jpg,-0.3785616,3.34728,circularblurringint,,2022-06-10_11h55.44.376,ratings,2022.1.1,Win32,60.0348202
-3.342696629,1.4774,0.411985019,2.1574,0,385,385,158,1,358_157f8ac929713531a15b1ecf115e7b659cb90e83d675251e368d165f_edges.jpg,-3.777776,-0.571428,edges,,2022-06-10_11h55.44.376,ratings,2022.1.1,Win32,60.0348202
-3.548689139,0.9652,0.711610487,1.7971,0,386,386,305,1,453_54f106fd1d4b65fa4aa347407127fc30d49f791e81aee3a0bbe44489_circblurext.jpg,2.222224,0.0,circularblurringext,,2022-06-10_11h55.44.376,ratings,2022.1.1,Win32,60.0348202
0.365168539,1.2782,-2.322097378,1.9536,0,387,387,285,1,440_dc6413e2b65369ee2587f4d85621742fe4ca87392d0a8ad2ea7d94e3_blur.jpg,-3.016216,1.69404,blurring,,2022-06-10_11h55.44.376,ratings,2022.1.1,Win32,60.0348202
0.486891386,2.3366,-2.303370787,2.9967,0,388,388,390,1,663_aaf52107fe3a86392530d88b34e86f9d2b6820714cad98d1e3c2cb67_orig.jpg,2.58766,0.0918696,original,,2022-06-10_11h55.44.376,ratings,2022.1.1,Win32,60.0348202
-3.13670412,1.0704,1.423220974,2.0365,0,389,389,26,1,59_8568373b727f29d67ba6ce4c360dd918c8b08b13495fca56bdda5e82_edges.jpg,2.064896,0.505688,edges,,2022-06-10_11h55.44.376,ratings,2022.1.1,Win32,60.0348202
-1.367041199,1.3887,-0.131086142,1.9326,0,390,390,221,1,396_208259ea431d47bb7f3946213eb099834eb119756ce304ad473d4d9f_circblurext.jpg,2.857144,-0.3809524,circularblurringext,,2022-06-10_11h55.44.376,ratings,2022.1.1,Win32,60.0348202
-0.196629213,1.1096,0.037453184,1.9199,0,391,391,9,1,28_6318543b74eeb646a1735477ebc023fdc9ac3849bc0db1957c272a26_blur.jpg,2.811244,-0.74584,blurring,,2022-06-10_11h55.44.376,ratings,2022.1.1,Win32,60.0348202
1.732209738,1.3974,-2.003745318,1.9973,0,392,392,149,1,354_e46c3ec6fb00773f64f2bcd212385f253c389808fe724b7cf8611051_circblurext.jpg,2.018292,0.0,circularblurringext,,2022-06-10_11h55.44.376,ratings,2022.1.1,Win32,60.0348202
2.406367041,1.5451,-3.782771536,2.5532,0,393,393,118,1,332_4d584229bdae2e1782f77f0e953e528f13c3dfa79b4b94736c0310fa_circblurint.jpg,3.157348,0.483092,circularblurringint,,2022-06-10_11h55.44.376,ratings,2022.1.1,Win32,60.0348202
-3.529962547,1.388,1.395131086,2.1594,0,394,394,284,1,440_dc6413e2b65369ee2587f4d85621742fe4ca87392d0a8ad2ea7d94e3_edges.jpg,-3.016216,1.69404,edges,,2022-06-10_11h55.44.376,ratings,2022.1.1,Win32,60.0348202
0.664794007,1.2927,-1.43258427,1.9567,0,395,395,5,1,13_771f4fcf0a212d25d6a78565e7f34cc5ddd823e7afbdc77ef063326e_circblurext.jpg,2.190476,0.0,circularblurringext,,2022-06-10_11h55.44.376,ratings,2022.1.1,Win32,60.0348202
-0.074906367,1.2205,-1.170411985,1.7698,0,396,396,534,1,986_a77edb21e78bc3a6aa7406517824596b3496ad6c657b6befb84cf370_orig.jpg,-3.906316,-0.60496,original,,2022-06-10_11h55.44.376,ratings,2022.1.1,Win32,60.0348202
2.368913858,1.6238,-1.844569288,2.7697,0,397,397,48,1,112_b6a4ce721c2e42943d7d8b168751d74cd2f372b1cd4fed5a4404faec_orig.jpg,2.107036,0.505688,original,,2022-06-10_11h55.44.376,ratings,2022.1.1,Win32,60.0348202
0.262172285,1.6885,-1.825842697,2.62,0,398,398,3,1,13_771f4fcf0a212d25d6a78565e7f34cc5ddd823e7afbdc77ef063326e_blur.jpg,2.190476,0.0,blurring,,2022-06-10_11h55.44.376,ratings,2022.1.1,Win32,60.0348202
-3.080524345,1.5419,0.440074906,2.2296,0,399,399,238,1,410_9633c4ff6e8888fcfca59a60ca86e9606d3e0736500a254101bdf295_circblurint.jpg,-0.3677892,2.981028,circularblurringint,,2022-06-10_11h55.44.376,ratings,2022.1.1,Win32,60.0348202
0.308988764,3.6529,-1.797752809,4.4092,0,400,400,446,1,709_69c01dcde028a2a1a913f1a2a5026ae1748484f75c89217a040c6791_edges.jpg,1.432444,-0.01935732,edges,,2022-06-10_11h55.44.376,ratings,2022.1.1,Win32,60.0348202
-2.031835206,2.5462,0.205992509,3.3701,0,401,401,205,1,381_5935a9f9796adce2f1539af6c75bcdc0c80d847a2ce9b77cf59b7672_bw.jpg,-1.327432,-0.442476,blackwhite,,2022-06-10_11h55.44.376,ratings,2022.1.1,Win32,60.0348202
0.458801498,0.9384,-1.985018727,1.5784,0,402,402,539,1,986_a77edb21e78bc3a6aa7406517824596b3496ad6c657b6befb84cf370_circblurext.jpg,-3.906316,-0.60496,circularblurringext,,2022-06-10_11h55.44.376,ratings,2022.1.1,Win32,60.0348202
-2.509363296,4.793,0.037453184,5.7191,0,403,403,348,1,498_305b74cdc4784d9d25e72724302e5402def70177ea31ae7e25fab66b_orig.jpg,3.04762,-0.444444,original,,2022-06-10_11h55.44.376,ratings,2022.1.1,Win32,60.0348202
-2.883895131,1.3369,0.215355805,1.9365,0,404,404,442,1,700_59cb565f134f1afd066d7b6d936c6511b7cb76de0e9cbb5ce15124ad_circblurint.jpg,0.0,0.0,circularblurringint,,2022-06-10_11h55.44.376,ratings,2022.1.1,Win32,60.0348202
-3.323970037,1.2886,0.571161049,1.9536,0,405,405,27,1,59_8568373b727f29d67ba6ce4c360dd918c8b08b13495fca56bdda5e82_blur.jpg,2.064896,0.505688,blurring,,2022-06-10_11h55.44.376,ratings,2022.1.1,Win32,60.0348202
1.91011236,1.1698,-2.602996255,1.7706,0,406,406,175,1,368_6507b94d7d0199f14efd3706db30c9c44b96085f84e9cc7792e3e0ae_bw.jpg,1.959544,0.400336,blackwhite,,2022-06-10_11h55.44.376,ratings,2022.1.1,Win32,60.0348202
0.346441948,5.2212,-1.151685393,5.8135,0,407,407,234,1,410_9633c4ff6e8888fcfca59a60ca86e9606d3e0736500a254101bdf295_orig.jpg,-0.3677892,2.981028,original,,2022-06-10_11h55.44.376,ratings,2022.1.1,Win32,60.0348202
-2.247191011,1.3606,-0.074906367,2.0404,0,408,408,239,1,410_9633c4ff6e8888fcfca59a60ca86e9606d3e0736500a254101bdf295_circblurext.jpg,-0.3677892,2.981028,circularblurringext,,2022-06-10_11h55.44.376,ratings,2022.1.1,Win32,60.0348202
0.730337079,1.3831,-1.760299625,1.983,0,409,409,203,1,380_34772591c787182a37724027eac6948ebc9d4064f6a601d23b923b8e_circblurext.jpg,2.222224,-0.063492,circularblurringext,,2022-06-10_11h55.44.376,ratings,2022.1.1,Win32,60.0348202
-3.745318352,1.2873,0.177902622,2.0614,0,410,410,260,1,416_8a1f874e0057d67a4e6955865ba88b2d8ce2c8b4469589307687a723_edges.jpg,-1.753336,3.088264,edges,,2022-06-10_11h55.44.376,ratings,2022.1.1,Win32,60.0348202
-0.543071161,1.2869,-1.189138577,1.9201,0,411,411,478,1,748_e519892faa7c772a0afaf9eeff36cf0e411574027ab3d9aa4947a048_circblurint.jpg,-1.813112,3.307432,circularblurringint,,2022-06-10_11h55.44.376,ratings,2022.1.1,Win32,60.0348202
-2.518726592,1.726,0.505617978,2.5662,0,412,412,556,1,1014_a5c212ca979d482cf94c2db7697aba75620391a64b030ab7ad2bbecf_circblurint.jpg,-3.174604,-1.374372,circularblurringint,,2022-06-10_11h55.44.376,ratings,2022.1.1,Win32,60.0348202
-3.146067416,1.0928,1.039325843,2.1488,0,413,413,358,1,500_3b520c7f352afa1a9f8c07e56cc0588cdc04d25ff6e7b602b5e280cb_circblurint.jpg,-0.8328,3.11766,circularblurringint,,2022-06-10_11h55.44.376,ratings,2022.1.1,Win32,60.0348202
-1.816479401,1.7897,0.533707865,2.3416,0,414,414,496,1,824_b1d91cc824ce0d3d383d3147da88d3d6dbaf6be918bab79e3ec8f501_circblurint.jpg,-3.645176,-1.432784,circularblurringint,,2022-06-10_11h55.44.376,ratings,2022.1.1,Win32,60.0348202
-3.623595506,1.2033,1.076779026,1.8913,0,415,415,182,1,369_98db62a1bdabfd1bc551180da6658005b461585cd21614633cf76470_edges.jpg,2.190476,-0.03174604,edges,,2022-06-10_11h55.44.376,ratings,2022.1.1,Win32,60.0348202
-0.973782772,3.5224,0.187265918,4.2662,0,416,416,233,1,407_578d31d32e806706dde2563213f130b90e621abfed0e47ecabd85d27_circblurext.jpg,3.5873,-0.444444,circularblurringext,,2022-06-10_11h55.44.376,ratings,2022.1.1,Win32,60.0348202
0.102996255,0.9398,-0.234082397,1.716,0,417,417,11,1,28_6318543b74eeb646a1735477ebc023fdc9ac3849bc0db1957c272a26_circblurext.jpg,2.811244,-0.74584,circularblurringext,,2022-06-10_11h55.44.376,ratings,2022.1.1,Win32,60.0348202
1.282771536,1.5036,-1.619850187,2.1547,0,418,418,421,1,692_e3e3bf88684fbbcdb9849a4147f9e2fcd39b0f083554a829aca4e9fa_bw.jpg,-0.44522,3.135888,blackwhite,,2022-06-10_11h55.44.376,ratings,2022.1.1,Win32,60.0348202
-1.460674157,1.0648,0.514981273,1.6032,0,419,419,189,1,369_c99797771115d7627d4abe3415f814497288f91a7be1a04c17c776b9_blur.jpg,3.619824,-0.174216,blurring,,2022-06-10_11h55.44.376,ratings,2022.1.1,Win32,60.0348202
-3.389513109,1.0267,0.702247191,2.1146,0,420,420,188,1,369_c99797771115d7627d4abe3415f814497288f91a7be1a04c17c776b9_edges.jpg,3.619824,-0.174216,edges,,2022-06-10_11h55.44.376,ratings,2022.1.1,Win32,60.0348202
0.112359551,2.7739,-1.713483146,3.5698,0,421,421,157,1,358_157f8ac929713531a15b1ecf115e7b659cb90e83d675251e368d165f_bw.jpg,-3.777776,-0.571428,blackwhite,,2022-06-10_11h55.44.376,ratings,2022.1.1,Win32,60.0348202
-1.516853933,1.6535,-1.310861423,3.4872,0,422,422,532,1,915_dc9fd40a3b5d64a180833a7bac86e7556c24f681f473fe255e41f936_circblurint.jpg,-3.09294,-0.918696,circularblurringint,,2022-06-10_11h55.44.376,ratings,2022.1.1,Win32,60.0348202
-3.005617978,1.0985,0.47752809,2.2424,0,423,423,195,1,379_eeaa6d9bf5a4ef205dc48bc505cf3a7f24ea86e99af9b371e03602a7_blur.jpg,-0.3926308,2.88936,blurring,,2022-06-10_11h55.44.376,ratings,2022.1.1,Win32,60.0348202
0.926966292,2.881,-1.38576779,4.5132,0,424,424,40,1,82_43f4d5aec7c2e5bd495473f6708a0f2d47c9fe34e1fe9436646cb036_circblurint.jpg,2.022756,0.505688,circularblurringint,,2022-06-10_11h55.44.376,ratings,2022.1.1,Win32,60.0348202
-2.284644195,1.6403,-0.683520599,2.3601,0,425,425,519,1,860_05c4e22518a30d3d2add458a8fc6488f87b9b02dd8e385ded939f025_blur.jpg,1.955092,0.3097172,blurring,,2022-06-10_11h55.44.376,ratings,2022.1.1,Win32,60.0348202
-3.801498127,1.0417,0.308988764,1.8255,0,426,426,80,1,242_85283f6935a89812ab229dcad9ba184529c9242ac3106d768ecf3ab3_edges.jpg,2.14918,-0.2949852,edges,,2022-06-10_11h55.44.376,ratings,2022.1.1,Win32,60.0348202
2.284644195,1.1291,-3.127340824,1.977,0,427,427,504,1,855_66d893451dfd1e7615132071c6c8a82b02dc2b37781cd89400883b26_orig.jpg,2.69484,0.2143624,original,,2022-06-10_11h55.44.376,ratings,2022.1.1,Win32,60.0348202
-0.702247191,1.5741,-0.571161049,2.1262,0,428,428,340,1,492_a1a4d288d3bc486c83c3b6a835c42891989f5ba781633932298a7676_circblurint.jpg,3.406892,-0.44522,circularblurringint,,2022-06-10_11h55.44.376,ratings,2022.1.1,Win32,60.0348202
-2.237827715,2.17,0.889513109,2.953,0,429,429,228,1,407_578d31d32e806706dde2563213f130b90e621abfed0e47ecabd85d27_orig.jpg,3.5873,-0.444444,original,,2022-06-10_11h55.44.376,ratings,2022.1.1,Win32,60.0348202
-0.009363296,1.6534,-1.058052434,2.1872,0,430,430,341,1,492_a1a4d288d3bc486c83c3b6a835c42891989f5ba781633932298a7676_circblurext.jpg,3.406892,-0.44522,circularblurringext,,2022-06-10_11h55.44.376,ratings,2022.1.1,Win32,60.0348202
-1.919475655,1.8715,0.393258427,2.4635,0,431,431,589,1,1228_557412d34d6a70b7c5d222e030aa485b351a4574e8ba1a3112d1d13d_bw.jpg,2.137444,0.703464,blackwhite,,2022-06-10_11h55.44.376,ratings,2022.1.1,Win32,60.0348202
-3.239700375,1.1277,1.020599251,1.9537,0,432,432,418,1,692_7d7eaf20e6de8956f0fca7500ace97a8599aa8b605a7d690cdb28724_circblurint.jpg,-2.063492,-1.26984,circularblurringint,,2022-06-10_11h55.44.376,ratings,2022.1.1,Win32,60.0348202
-3.642322097,1.4564,1.06741573,2.1763,0,433,433,265,1,431_ab5a1dbbe9292ac7f74e276cdabcd372e2c1f852ff34bf7cc6646ef8_bw.jpg,3.102584,0.354334,blackwhite,,2022-06-10_11h55.44.376,ratings,2022.1.1,Win32,60.0348202
0.393258427,1.9703,-1.011235955,2.67,0,434,434,59,1,137_0e6a04243c0a42a5e2528a2d181255ca2a4b7bd6e7978c5c2059c69f_circblurext.jpg,-0.95238,2.095236,circularblurringext,,2022-06-10_11h55.44.376,ratings,2022.1.1,Win32,60.0348202
-2.808988764,1.8658,0.355805243,2.4573,0,435,435,34,1,60_ad52063167538de24f94d7dfd04808cb94cf8f426c40871d2f126505_circblurint.jpg,2.158732,0.0,circularblurringint,,2022-06-10_11h55.44.376,ratings,2022.1.1,Win32,60.0348202
-1.666666667,2.3709,0.486891386,2.9068,0,436,436,67,1,172_c641c6c56ca6b594b773084e1363c852abdb65f988d7ff802ee503f2_bw.jpg,0.379572,0.01725328,blackwhite,,2022-06-10_11h55.44.376,ratings,2022.1.1,Win32,60.0348202
-3.745318352,2.3036,2.406367041,3.1092,0,437,437,363,1,508_a7a9519cdc7aad6844030f4e6cd96cffd1b9c49b71e20ea52789bda2_blur.jpg,-3.000388,-1.29694,blurring,,2022-06-10_11h55.44.376,ratings,2022.1.1,Win32,60.0348202
-1.22659176,1.3583,-0.655430712,1.974,0,438,438,528,1,915_dc9fd40a3b5d64a180833a7bac86e7556c24f681f473fe255e41f936_orig.jpg,-3.09294,-0.918696,original,,2022-06-10_11h55.44.376,ratings,2022.1.1,Win32,60.0348202
-2.734082397,1.0698,-0.730337079,1.6199,0,439,439,343,1,494_5c6c3b85a2734a43c24bfe337d42ffcc82b7347227804d01c784cef4_bw.jpg,0.03871468,0.0,blackwhite,,2022-06-10_11h55.44.376,ratings,2022.1.1,Win32,60.0348202
-3.77340824,1.4215,1.535580524,2.0698,0,440,440,204,1,381_5935a9f9796adce2f1539af6c75bcdc0c80d847a2ce9b77cf59b7672_orig.jpg,-1.327432,-0.442476,original,,2022-06-10_11h55.44.376,ratings,2022.1.1,Win32,60.0348202
1.292134831,1.1981,-1.938202247,1.9741,0,441,441,147,1,354_e46c3ec6fb00773f64f2bcd212385f253c389808fe724b7cf8611051_blur.jpg,2.018292,0.0,blurring,,2022-06-10_11h55.44.376,ratings,2022.1.1,Win32,60.0348202
1.43258427,2.6032,-1.179775281,3.453,0,442,442,83,1,242_85283f6935a89812ab229dcad9ba184529c9242ac3106d768ecf3ab3_circblurext.jpg,2.14918,-0.2949852,circularblurringext,,2022-06-10_11h55.44.376,ratings,2022.1.1,Win32,60.0348202
-1.460674157,1.1622,-0.168539326,1.7138,0,443,443,401,1,683_a004ad18331da968da5debdd15e1447dd7748750af0bc6c57b844200_circblurext.jpg,-2.91956,2.466524,circularblurringext,,2022-06-10_11h55.44.376,ratings,2022.1.1,Win32,60.0348202
1.694756554,1.4447,-0.599250936,2.4869,0,444,444,79,1,242_85283f6935a89812ab229dcad9ba184529c9242ac3106d768ecf3ab3_bw.jpg,2.14918,-0.2949852,blackwhite,,2022-06-10_11h55.44.376,ratings,2022.1.1,Win32,60.0348202
0.290262172,2.171,-1.54494382,2.8908,0,445,445,156,1,358_157f8ac929713531a15b1ecf115e7b659cb90e83d675251e368d165f_orig.jpg,-3.777776,-0.571428,original,,2022-06-10_11h55.44.376,ratings,2022.1.1,Win32,60.0348202
0.889513109,1.9701,-1.264044944,2.7453,0,446,446,577,1,1061_665178b9cb0bc869cc2e2b68def4838db04e66f9531098fb75875a09_bw.jpg,0.3492064,-0.3174604,blackwhite,,2022-06-10_11h55.44.376,ratings,2022.1.1,Win32,60.0348202
0.842696629,1.2369,-1.189138577,2.0207,0,447,447,378,1,640_0ddb4981a5f5842ed5b4f7ef941be53779189df5e718b1fc5475ad80_orig.jpg,2.571428,-1.873016,original,,2022-06-10_11h55.44.376,ratings,2022.1.1,Win32,60.0348202
-2.668539326,1.1243,0.486891386,1.7032,0,448,448,349,1,498_305b74cdc4784d9d25e72724302e5402def70177ea31ae7e25fab66b_bw.jpg,3.04762,-0.444444,blackwhite,,2022-06-10_11h55.44.376,ratings,2022.1.1,Win32,60.0348202
1.488764045,1.3143,-1.27340824,1.946,0,449,449,66,1,172_c641c6c56ca6b594b773084e1363c852abdb65f988d7ff802ee503f2_orig.jpg,0.379572,0.01725328,original,,2022-06-10_11h55.44.376,ratings,2022.1.1,Win32,60.0348202
-2.996254682,1.121,0.936329588,1.9772,0,450,450,196,1,379_eeaa6d9bf5a4ef205dc48bc505cf3a7f24ea86e99af9b371e03602a7_circblurint.jpg,-0.3926308,2.88936,circularblurringint,,2022-06-10_11h55.44.376,ratings,2022.1.1,Win32,60.0348202
-3.923220974,0.9882,2.059925094,1.6211,0,451,451,111,1,293_3dfdfafc0c6a54b2da7453750ac281f7718c0b3337b0a74c4563d6bd_blur.jpg,-2.574524,2.632596,blurring,,2022-06-10_11h55.44.376,ratings,2022.1.1,Win32,60.0348202
-1.573033708,1.4329,0.692883895,1.9531,0,452,452,567,1,1037_e2eb929a6de79a63ce6cfe5321fcb74a203b134e4094932d90b01d99_blur.jpg,2.651956,0.0,blurring,,2022-06-10_11h55.44.376,ratings,2022.1.1,Win32,60.0348202
-3.417602996,1.2584,0.898876404,1.7705,0,453,453,483,1,759_95e1c46ed9a337414d5c8eada8fa8b9632e18751f5ce6ed587806e91_blur.jpg,2.126984,0.0,blurring,,2022-06-10_11h55.44.376,ratings,2022.1.1,Win32,60.0348202
-3.558052434,1.0745,0.177902622,1.5942,0,454,454,386,1,646_577760d718dab44c6f04d77408c5644a120065ce07a9503957d0850a_edges.jpg,-2.690668,2.61324,edges,,2022-06-10_11h55.44.376,ratings,2022.1.1,Win32,60.0348202
-3.754681648,1.2204,0.505617978,2.5123,0,455,455,38,1,82_43f4d5aec7c2e5bd495473f6708a0f2d47c9fe34e1fe9436646cb036_edges.jpg,2.022756,0.505688,edges,,2022-06-10_11h55.44.376,ratings,2022.1.1,Win32,60.0348202
-3.754681648,0.9566,0.037453184,1.5643,0,456,456,473,1,741_2b218fb015e3da83db73cacdb52e61e0c2534c1fe255bb1c5c74d47f_circblurext.jpg,3.140096,0.448584,circularblurringext,,2022-06-10_11h55.44.376,ratings,2022.1.1,Win32,60.0348202
-3.13670412,0.9969,0.449438202,1.7086,0,457,457,86,1,243_beddb302dcb21071d88c8d2cab07002050d36b3001ef28f89389fa56_edges.jpg,-0.3450656,-0.2070392,edges,,2022-06-10_11h55.44.376,ratings,2022.1.1,Win32,60.0348202
-2.65917603,2.2955,-0.973782772,4.3363,0,458,458,181,1,369_98db62a1bdabfd1bc551180da6658005b461585cd21614633cf76470_bw.jpg,2.190476,-0.03174604,blackwhite,,2022-06-10_11h55.44.376,ratings,2022.1.1,Win32,60.0348202
-3.24906367,1.3763,1.601123596,1.9282,0,459,459,46,1,92_5d20d78a8e57e628c6930676473a4e0a485e715841efd6286c660020_circblurint.jpg,2.126984,0.0,circularblurringint,,2022-06-10_11h55.44.376,ratings,2022.1.1,Win32,60.0348202
-3.352059925,1.062,2.640449438,2.2779,0,460,460,561,1,1022_cf035e583d41a856836f8b0ae314ecbe79dffd9e40ef6a08cc26028f_blur.jpg,-0.2516452,3.05846,blurring,,2022-06-10_11h55.44.376,ratings,2022.1.1,Win32,60.0348202
0.496254682,1.2769,-1.329588015,2.5885,0,461,461,366,1,616_05a637f5281666f53d4e2ef69351485fc21d629b37ee2006b2076eb6_orig.jpg,-2.380952,-0.832364,original,,2022-06-10_11h55.44.376,ratings,2022.1.1,Win32,60.0348202
