valence_slider.response,valence_slider.rt,arousal_slider.response,arousal_slider.rt,trials.thisRepN,trials.thisTrialN,trials.thisN,trials.thisIndex,trials.ran,img_name,vm,am,manipulation,participant,date,expName,psychopyVersion,OS,frameRate
-1.011235955,60.7352,-0.992509363,68.3072,0,0,0,453,1,716_2ab64478147184c4df720a52cf621875addc9007cb2967e4a9a88909_blur.jpg,2.428484,0.0,blurring,keaz01,2022-06-14_12h06.06.244,ratings,2022.1.1,Win32,60.85316132
1.001872659,4.4033,1.011235955,6.4519,0,1,1,53,1,112_b6a4ce721c2e42943d7d8b168751d74cd2f372b1cd4fed5a4404faec_circblurext.jpg,2.107036,0.505688,circularblurringext,keaz01,2022-06-14_12h06.06.244,ratings,2022.1.1,Win32,60.85316132
1.975655431,5.2092,0.992509363,9.4646,0,2,2,4,1,13_771f4fcf0a212d25d6a78565e7f34cc5ddd823e7afbdc77ef063326e_circblurint.jpg,2.190476,0.0,circularblurringint,keaz01,2022-06-14_12h06.06.244,ratings,2022.1.1,Win32,60.85316132
0.992509363,69.9961,1.947565543,71.3098,0,3,3,212,1,394_8e3a0cb945144d53bd1ace04b6256237ed9dcbbd9cb83f8a4886b0e6_edges.jpg,-2.593884,2.651956,edges,keaz01,2022-06-14_12h06.06.244,ratings,2022.1.1,Win32,60.85316132
-3.923220974,5.3921,-3.024344569,55.8315,0,4,4,139,1,353_44e285740cb41818482ac93fc5fbd72c18029444a1d7506c9fc053e7_bw.jpg,-3.232676,-0.87108,blackwhite,keaz01,2022-06-14_12h06.06.244,ratings,2022.1.1,Win32,60.85316132
-1.06741573,6.6097,-2.059925094,9.0758,0,5,5,295,1,449_9c1e990a3480e5b51430fe76b0188e69ba2468fd6a866b88b2d0dd75_bw.jpg,0.095238,0.03174604,blackwhite,keaz01,2022-06-14_12h06.06.244,ratings,2022.1.1,Win32,60.85316132
-3.024344569,2.9484,-0.973782772,5.1199,0,6,6,219,1,396_208259ea431d47bb7f3946213eb099834eb119756ce304ad473d4d9f_blur.jpg,2.857144,-0.3809524,blurring,keaz01,2022-06-14_12h06.06.244,ratings,2022.1.1,Win32,60.85316132
1.947565543,2.8154,1.985018727,4.777,0,7,7,481,1,759_95e1c46ed9a337414d5c8eada8fa8b9632e18751f5ce6ed587806e91_bw.jpg,2.126984,0.0,blackwhite,keaz01,2022-06-14_12h06.06.244,ratings,2022.1.1,Win32,60.85316132
1.966292135,3.204,1.086142322,4.504,0,8,8,34,1,60_ad52063167538de24f94d7dfd04808cb94cf8f426c40871d2f126505_circblurint.jpg,2.158732,0.0,circularblurringint,keaz01,2022-06-14_12h06.06.244,ratings,2022.1.1,Win32,60.85316132
3.014981273,3.3651,2.97752809,4.5494,0,9,9,252,1,416_5eb54976bb41ce2a6d129ef985f792e716f010fb9b69b15f50f5d2db_orig.jpg,-2.58766,2.602972,original,keaz01,2022-06-14_12h06.06.244,ratings,2022.1.1,Win32,60.85316132
-2.949438202,4.4999,-1.872659176,5.4216,0,10,10,435,1,694_f80f33613b268beffd6c044537cf3b44a84683d6e889bc37b8e9c34b_blur.jpg,-0.3785616,3.34728,blurring,keaz01,2022-06-14_12h06.06.244,ratings,2022.1.1,Win32,60.85316132
-2.013108614,2.8261,-1.020599251,3.9159,0,11,11,179,1,368_6507b94d7d0199f14efd3706db30c9c44b96085f84e9cc7792e3e0ae_circblurext.jpg,1.959544,0.400336,circularblurringext,keaz01,2022-06-14_12h06.06.244,ratings,2022.1.1,Win32,60.85316132
1.001872659,2.4618,0.945692884,3.3817,0,12,12,588,1,1228_557412d34d6a70b7c5d222e030aa485b351a4574e8ba1a3112d1d13d_orig.jpg,2.137444,0.703464,original,keaz01,2022-06-14_12h06.06.244,ratings,2022.1.1,Win32,60.85316132
-2.97752809,2.4248,-1.994382022,3.6407,0,13,13,384,1,646_577760d718dab44c6f04d77408c5644a120065ce07a9503957d0850a_orig.jpg,-2.690668,2.61324,original,keaz01,2022-06-14_12h06.06.244,ratings,2022.1.1,Win32,60.85316132
-1.947565543,2.4894,-2.940074906,3.3454,0,14,14,579,1,1061_665178b9cb0bc869cc2e2b68def4838db04e66f9531098fb75875a09_blur.jpg,0.3492064,-0.3174604,blurring,keaz01,2022-06-14_12h06.06.244,ratings,2022.1.1,Win32,60.85316132
-2.041198502,2.404,-3.230337079,3.2757,0,15,15,501,1,854_081a8409e4d6d10923b2dedcc16a3fca405fcd602e55a20d84cac69d_blur.jpg,3.088264,1.21538,blurring,keaz01,2022-06-14_12h06.06.244,ratings,2022.1.1,Win32,60.85316132
0.926966292,4.9508,0.926966292,6.3203,0,16,16,480,1,759_95e1c46ed9a337414d5c8eada8fa8b9632e18751f5ce6ed587806e91_orig.jpg,2.126984,0.0,original,keaz01,2022-06-14_12h06.06.244,ratings,2022.1.1,Win32,60.85316132
-3.970037453,3.4271,-3.052434457,5.6292,0,17,17,156,1,358_157f8ac929713531a15b1ecf115e7b659cb90e83d675251e368d165f_orig.jpg,-3.777776,-0.571428,original,keaz01,2022-06-14_12h06.06.244,ratings,2022.1.1,Win32,60.85316132
0.402621723,4.4203,0.224719101,6.0801,0,18,18,28,1,59_8568373b727f29d67ba6ce4c360dd918c8b08b13495fca56bdda5e82_circblurint.jpg,2.064896,0.505688,circularblurringint,keaz01,2022-06-14_12h06.06.244,ratings,2022.1.1,Win32,60.85316132
2.116104869,3.397,1.104868914,4.5711,0,19,19,206,1,381_5935a9f9796adce2f1539af6c75bcdc0c80d847a2ce9b77cf59b7672_edges.jpg,-1.327432,-0.442476,edges,keaz01,2022-06-14_12h06.06.244,ratings,2022.1.1,Win32,60.85316132
2.031835206,2.1202,1.947565543,3.2373,0,20,20,222,1,403_57ac47f43882fc031a6067b1a388c0b2cbe8708dcbd2ff1019932eff_orig.jpg,-3.333332,-1.396824,original,keaz01,2022-06-14_12h06.06.244,ratings,2022.1.1,Win32,60.85316132
-2.996254682,2.7872,-2.097378277,4.2268,0,21,21,89,1,243_beddb302dcb21071d88c8d2cab07002050d36b3001ef28f89389fa56_circblurext.jpg,-0.3450656,-0.2070392,circularblurringext,keaz01,2022-06-14_12h06.06.244,ratings,2022.1.1,Win32,60.85316132
2.968164794,2.0958,2.949438202,3.2876,0,22,22,228,1,407_578d31d32e806706dde2563213f130b90e621abfed0e47ecabd85d27_orig.jpg,3.5873,-0.444444,original,keaz01,2022-06-14_12h06.06.244,ratings,2022.1.1,Win32,60.85316132
2.940074906,1.6443,2.911985019,2.6124,0,23,23,31,1,60_ad52063167538de24f94d7dfd04808cb94cf8f426c40871d2f126505_bw.jpg,2.158732,0.0,blackwhite,keaz01,2022-06-14_12h06.06.244,ratings,2022.1.1,Win32,60.85316132
-1.956928839,1.7431,-1.086142322,2.687,0,24,24,561,1,1022_cf035e583d41a856836f8b0ae314ecbe79dffd9e40ef6a08cc26028f_blur.jpg,-0.2516452,3.05846,blurring,keaz01,2022-06-14_12h06.06.244,ratings,2022.1.1,Win32,60.85316132
-3.117977528,2.0079,-2.116104869,2.8639,0,25,25,418,1,692_7d7eaf20e6de8956f0fca7500ace97a8599aa8b605a7d690cdb28724_circblurint.jpg,-2.063492,-1.26984,circularblurringint,keaz01,2022-06-14_12h06.06.244,ratings,2022.1.1,Win32,60.85316132
-2.059925094,2.0155,-1.048689139,2.8473,0,26,26,13,1,39_2fafccaa4dc69045a05845f59c6b3cd2edcf7e0e0c108b24e553afe0_bw.jpg,2.022756,0.463548,blackwhite,keaz01,2022-06-14_12h06.06.244,ratings,2022.1.1,Win32,60.85316132
-3.014981273,2.4466,-1.91011236,4.4967,0,27,27,593,1,1228_557412d34d6a70b7c5d222e030aa485b351a4574e8ba1a3112d1d13d_circblurext.jpg,2.137444,0.703464,circularblurringext,keaz01,2022-06-14_12h06.06.244,ratings,2022.1.1,Win32,60.85316132
0.421348315,2.2132,0.43071161,3.2613,0,28,28,350,1,498_305b74cdc4784d9d25e72724302e5402def70177ea31ae7e25fab66b_edges.jpg,3.04762,-0.444444,edges,keaz01,2022-06-14_12h06.06.244,ratings,2022.1.1,Win32,60.85316132
0.486891386,1.5208,0.655430712,2.612,0,29,29,122,1,347_27f0e47c2722605b950ccf9fa900f78271e4c3c874064ab5dacac160_edges.jpg,1.838948,0.3097172,edges,keaz01,2022-06-14_12h06.06.244,ratings,2022.1.1,Win32,60.85316132
-2.883895131,1.6064,-1.91011236,2.8221,0,30,30,214,1,394_8e3a0cb945144d53bd1ace04b6256237ed9dcbbd9cb83f8a4886b0e6_circblurint.jpg,-2.593884,2.651956,circularblurringint,keaz01,2022-06-14_12h06.06.244,ratings,2022.1.1,Win32,60.85316132
-0.767790262,8.3433,-1.011235955,9.4935,0,31,31,226,1,403_57ac47f43882fc031a6067b1a388c0b2cbe8708dcbd2ff1019932eff_circblurint.jpg,-3.333332,-1.396824,circularblurringint,keaz01,2022-06-14_12h06.06.244,ratings,2022.1.1,Win32,60.85316132
-2.172284644,3.0042,-2.93071161,4.1039,0,32,32,491,1,818_877aae033c31e3bbca4486321a5307f87cf53c576c546462d3daf194_circblurext.jpg,-1.277584,0.619436,circularblurringext,keaz01,2022-06-14_12h06.06.244,ratings,2022.1.1,Win32,60.85316132
2.911985019,3.1117,2.865168539,4.2257,0,33,33,547,1,1010_06d15f44b979c086561137000ec070ba4cd479856f92840a7850b2bf_bw.jpg,0.189786,-0.189786,blackwhite,keaz01,2022-06-14_12h06.06.244,ratings,2022.1.1,Win32,60.85316132
1.928838951,1.5705,2.883895131,2.5868,0,34,34,434,1,694_f80f33613b268beffd6c044537cf3b44a84683d6e889bc37b8e9c34b_edges.jpg,-0.3785616,3.34728,edges,keaz01,2022-06-14_12h06.06.244,ratings,2022.1.1,Win32,60.85316132
3.043071161,1.4391,2.902621723,2.2231,0,35,35,512,1,858_2f6539ee36aba48c38dc716d4f7c3ae93367d6ddf23ab41745d4172c_edges.jpg,0.0623832,0.176752,edges,keaz01,2022-06-14_12h06.06.244,ratings,2022.1.1,Win32,60.85316132
2.865168539,1.3377,2.799625468,2.2035,0,36,36,320,1,460_e06b3af7ff2f2bfb5f9b6e3d5dc25b9aaa40b84823fac8fd934621bd_edges.jpg,-3.430992,-1.607468,edges,keaz01,2022-06-14_12h06.06.244,ratings,2022.1.1,Win32,60.85316132
2.921348315,1.4411,2.837078652,2.3539,0,37,37,186,1,369_c99797771115d7627d4abe3415f814497288f91a7be1a04c17c776b9_orig.jpg,3.619824,-0.174216,original,keaz01,2022-06-14_12h06.06.244,ratings,2022.1.1,Win32,60.85316132
2.93071161,1.6792,2.921348315,2.6151,0,38,38,172,1,365_45a719cabbc9aa308c4fcb30d529489c6966ac4073874af84f665c61_circblurint.jpg,2.507936,-1.968252,circularblurringint,keaz01,2022-06-14_12h06.06.244,ratings,2022.1.1,Win32,60.85316132
2.677902622,1.4203,2.97752809,2.3306,0,39,39,392,1,663_aaf52107fe3a86392530d88b34e86f9d2b6820714cad98d1e3c2cb67_edges.jpg,2.58766,0.0918696,edges,keaz01,2022-06-14_12h06.06.244,ratings,2022.1.1,Win32,60.85316132
2.153558052,5.4132,1.985018727,4.445,0,40,40,308,1,455_34a7d8167619d110206c369e3f7dce8a3f99db763a9d8e2b956501d3_edges.jpg,-2.526412,-0.3827896,edges,keaz01,2022-06-14_12h06.06.244,ratings,2022.1.1,Win32,60.85316132
-1.029962547,2.1368,0.093632959,3.1412,0,41,41,239,1,410_9633c4ff6e8888fcfca59a60ca86e9606d3e0736500a254101bdf295_circblurext.jpg,-0.3677892,2.981028,circularblurringext,keaz01,2022-06-14_12h06.06.244,ratings,2022.1.1,Win32,60.85316132
-0.449438202,1.7876,-0.121722846,2.8438,0,42,42,477,1,748_e519892faa7c772a0afaf9eeff36cf0e411574027ab3d9aa4947a048_blur.jpg,-1.813112,3.307432,blurring,keaz01,2022-06-14_12h06.06.244,ratings,2022.1.1,Win32,60.85316132
2.471910112,1.7491,2.397003745,2.6378,0,43,43,79,1,242_85283f6935a89812ab229dcad9ba184529c9242ac3106d768ecf3ab3_bw.jpg,2.14918,-0.2949852,blackwhite,keaz01,2022-06-14_12h06.06.244,ratings,2022.1.1,Win32,60.85316132
2.228464419,1.7038,2.18164794,2.6297,0,44,44,169,1,365_45a719cabbc9aa308c4fcb30d529489c6966ac4073874af84f665c61_bw.jpg,2.507936,-1.968252,blackwhite,keaz01,2022-06-14_12h06.06.244,ratings,2022.1.1,Win32,60.85316132
-1.38576779,2.366,-0.084269663,3.8705,0,45,45,21,1,48_2cc936b2483ab2944c9158e163342b874ef6c1492fd8fca08c0e096e_blur.jpg,-1.264224,-0.779604,blurring,keaz01,2022-06-14_12h06.06.244,ratings,2022.1.1,Win32,60.85316132
-3.754681648,2.2088,-3.005617978,3.5539,0,46,46,534,1,986_a77edb21e78bc3a6aa7406517824596b3496ad6c657b6befb84cf370_orig.jpg,-3.906316,-0.60496,original,keaz01,2022-06-14_12h06.06.244,ratings,2022.1.1,Win32,60.85316132
-1.301498127,4.1329,-1.282771536,5.2228,0,47,47,373,1,620_9674719009d75dcfeaed7f15932c43e1fd1af5e25d47b8aadd61efe2_bw.jpg,-0.561364,1.142084,blackwhite,keaz01,2022-06-14_12h06.06.244,ratings,2022.1.1,Win32,60.85316132
0.58988764,7.3763,0.58988764,8.1202,0,48,48,461,1,720_483c541c48959a597fcf44320941afaf8b7695105f90d65b5f6b30f2_circblurext.jpg,2.158732,-0.2539684,circularblurringext,keaz01,2022-06-14_12h06.06.244,ratings,2022.1.1,Win32,60.85316132
0.458801498,2.4536,0.468164794,3.5732,0,49,49,447,1,709_69c01dcde028a2a1a913f1a2a5026ae1748484f75c89217a040c6791_blur.jpg,1.432444,-0.01935732,blurring,keaz01,2022-06-14_12h06.06.244,ratings,2022.1.1,Win32,60.85316132
-0.112359551,4.4549,-0.215355805,5.7143,0,50,50,192,1,379_eeaa6d9bf5a4ef205dc48bc505cf3a7f24ea86e99af9b371e03602a7_orig.jpg,-0.3926308,2.88936,original,keaz01,2022-06-14_12h06.06.244,ratings,2022.1.1,Win32,60.85316132
-2.059925094,4.5798,-1.161048689,5.5899,0,51,51,585,1,1225_59c67a821456f2cce3e5acf66d7f00076bd02caffc984c1eb0df794e_blur.jpg,-0.444444,3.809524,blurring,keaz01,2022-06-14_12h06.06.244,ratings,2022.1.1,Win32,60.85316132
1.301498127,1.647,1.22659176,2.3213,0,52,52,290,1,442_7449d79dae5d652af9b2429872cabdef938646ba024db2f431b3b28d_edges.jpg,1.619048,0.126984,edges,keaz01,2022-06-14_12h06.06.244,ratings,2022.1.1,Win32,60.85316132
1.301498127,2.2279,1.413857678,3.0222,0,53,53,5,1,13_771f4fcf0a212d25d6a78565e7f34cc5ddd823e7afbdc77ef063326e_circblurext.jpg,2.190476,0.0,circularblurringext,keaz01,2022-06-14_12h06.06.244,ratings,2022.1.1,Win32,60.85316132
1.413857678,1.4435,1.535580524,2.4369,0,54,54,155,1,355_00a76f54934d36566dd0e7b091b8aa6a56d8e6b32d349aa578a10b45_circblurext.jpg,2.910052,0.3439152,circularblurringext,keaz01,2022-06-14_12h06.06.244,ratings,2022.1.1,Win32,60.85316132
1.760299625,1.8701,1.797752809,2.7874,0,55,55,70,1,172_c641c6c56ca6b594b773084e1363c852abdb65f988d7ff802ee503f2_circblurint.jpg,0.379572,0.01725328,circularblurringint,keaz01,2022-06-14_12h06.06.244,ratings,2022.1.1,Win32,60.85316132
-3.632958801,2.858,-3.099250936,4.0262,0,56,56,241,1,411_adfd0d5782129756321ff671d0cfb712528504c66c863df11aabd1e7_bw.jpg,-3.392332,-1.369576,blackwhite,keaz01,2022-06-14_12h06.06.244,ratings,2022.1.1,Win32,60.85316132
0.496254682,7.0799,1.376404494,6.2239,0,57,57,11,1,28_6318543b74eeb646a1735477ebc023fdc9ac3849bc0db1957c272a26_circblurext.jpg,2.811244,-0.74584,circularblurringext,keaz01,2022-06-14_12h06.06.244,ratings,2022.1.1,Win32,60.85316132
-2.031835206,4.5482,-0.458801498,5.5199,0,58,58,503,1,854_081a8409e4d6d10923b2dedcc16a3fca405fcd602e55a20d84cac69d_circblurext.jpg,3.088264,1.21538,circularblurringext,keaz01,2022-06-14_12h06.06.244,ratings,2022.1.1,Win32,60.85316132
2.986891386,1.826,2.359550562,3.274,0,59,59,118,1,332_4d584229bdae2e1782f77f0e953e528f13c3dfa79b4b94736c0310fa_circblurint.jpg,3.157348,0.483092,circularblurringint,keaz01,2022-06-14_12h06.06.244,ratings,2022.1.1,Win32,60.85316132
1.479400749,1.7458,1.582397004,2.6259,0,60,60,272,1,434_ba36d91204d7e578001f6a545d7501e65d209554def5a3c8b7583825_edges.jpg,-3.523808,1.428572,edges,keaz01,2022-06-14_12h06.06.244,ratings,2022.1.1,Win32,60.85316132
1.882022472,1.4226,1.554307116,2.2146,0,61,61,470,1,741_2b218fb015e3da83db73cacdb52e61e0c2534c1fe255bb1c5c74d47f_edges.jpg,3.140096,0.448584,edges,keaz01,2022-06-14_12h06.06.244,ratings,2022.1.1,Win32,60.85316132
2.153558052,1.7595,1.844569288,3.0156,0,62,62,546,1,1010_06d15f44b979c086561137000ec070ba4cd479856f92840a7850b2bf_orig.jpg,0.189786,-0.189786,original,keaz01,2022-06-14_12h06.06.244,ratings,2022.1.1,Win32,60.85316132
-2.97752809,2.1039,-3.314606742,3.3209,0,63,63,137,1,349_8809a67686d34844c915d7700e2ea72ad1c02ae232ae0d3cc0e458d4_circblurext.jpg,-3.619048,-0.2857144,circularblurringext,keaz01,2022-06-14_12h06.06.244,ratings,2022.1.1,Win32,60.85316132
0.496254682,8.4736,0.777153558,7.4575,0,64,64,16,1,39_2fafccaa4dc69045a05845f59c6b3cd2edcf7e0e0c108b24e553afe0_circblurint.jpg,2.022756,0.463548,circularblurringint,keaz01,2022-06-14_12h06.06.244,ratings,2022.1.1,Win32,60.85316132
-3.951310861,2.1758,-3.014981273,3.9042,0,65,65,575,1,1039_d64da8480fc6e94dcdc513237d600570ae0b9fe48795ac6a8b2d29a7_circblurext.jpg,-2.507936,-1.142856,circularblurringext,keaz01,2022-06-14_12h06.06.244,ratings,2022.1.1,Win32,60.85316132
0.524344569,5.7045,-0.552434457,6.642,0,66,66,543,1,1005_b980c0747d20935bc63cc27a9e05ce2ff5bae98f859872ec48edd7f5_blur.jpg,3.428572,-0.476192,blurring,keaz01,2022-06-14_12h06.06.244,ratings,2022.1.1,Win32,60.85316132
0.617977528,2.0916,0.102996255,3.0539,0,67,67,513,1,858_2f6539ee36aba48c38dc716d4f7c3ae93367d6ddf23ab41745d4172c_blur.jpg,0.0623832,0.176752,blurring,keaz01,2022-06-14_12h06.06.244,ratings,2022.1.1,Win32,60.85316132
1.685393258,2.1547,0.964419476,4.0201,0,68,68,332,1,482_a1cd28915c5044c018195ab0fff10dcc95e385246b045a7cd4463ff7_edges.jpg,-3.361852,-1.555612,edges,keaz01,2022-06-14_12h06.06.244,ratings,2022.1.1,Win32,60.85316132
1.245318352,1.462,1.132958801,2.3902,0,69,69,101,1,267_792043debad81ce271cec5b3c3bd9d264efc13f362bec9c7a3f72fe7_circblurext.jpg,1.980616,0.2107036,circularblurringext,keaz01,2022-06-14_12h06.06.244,ratings,2022.1.1,Win32,60.85316132
0.112359551,3.1263,-0.561797753,4.2785,0,70,70,298,1,449_9c1e990a3480e5b51430fe76b0188e69ba2468fd6a866b88b2d0dd75_circblurint.jpg,0.095238,0.03174604,circularblurringint,keaz01,2022-06-14_12h06.06.244,ratings,2022.1.1,Win32,60.85316132
2.958801498,1.6939,2.97752809,2.9099,0,71,71,445,1,709_69c01dcde028a2a1a913f1a2a5026ae1748484f75c89217a040c6791_bw.jpg,1.432444,-0.01935732,blackwhite,keaz01,2022-06-14_12h06.06.244,ratings,2022.1.1,Win32,60.85316132
1.441947566,1.6213,1.329588015,2.5972,0,72,72,416,1,692_7d7eaf20e6de8956f0fca7500ace97a8599aa8b605a7d690cdb28724_edges.jpg,-2.063492,-1.26984,edges,keaz01,2022-06-14_12h06.06.244,ratings,2022.1.1,Win32,60.85316132
-0.47752809,1.6232,-0.177902622,2.343,0,73,73,307,1,455_34a7d8167619d110206c369e3f7dce8a3f99db763a9d8e2b956501d3_bw.jpg,-2.526412,-0.3827896,blackwhite,keaz01,2022-06-14_12h06.06.244,ratings,2022.1.1,Win32,60.85316132
0.627340824,3.7551,-0.458801498,4.7411,0,74,74,562,1,1022_cf035e583d41a856836f8b0ae314ecbe79dffd9e40ef6a08cc26028f_circblurint.jpg,-0.2516452,3.05846,circularblurringint,keaz01,2022-06-14_12h06.06.244,ratings,2022.1.1,Win32,60.85316132
0.63670412,7.2869,-1.516853933,8.6367,0,75,75,391,1,663_aaf52107fe3a86392530d88b34e86f9d2b6820714cad98d1e3c2cb67_bw.jpg,2.58766,0.0918696,blackwhite,keaz01,2022-06-14_12h06.06.244,ratings,2022.1.1,Win32,60.85316132
-3.436329588,1.6373,-3.052434457,3.0775,0,76,76,492,1,824_b1d91cc824ce0d3d383d3147da88d3d6dbaf6be918bab79e3ec8f501_orig.jpg,-3.645176,-1.432784,original,keaz01,2022-06-14_12h06.06.244,ratings,2022.1.1,Win32,60.85316132
1.666666667,4.1956,0.337078652,5.2151,0,77,77,524,1,877_cab3efed0c9ff4552037df6c1ea4ea9713f915c94592a14dbf2799da_edges.jpg,3.174604,0.3174604,edges,keaz01,2022-06-14_12h06.06.244,ratings,2022.1.1,Win32,60.85316132
-3.024344569,5.2971,1.985018727,14.6317,0,78,78,127,1,349_18d92ef5c21ca70a3dd237aad251594e1688bbe01d8cff37b89c46b8_bw.jpg,-2.74874,-1.258228,blackwhite,keaz01,2022-06-14_12h06.06.244,ratings,2022.1.1,Win32,60.85316132
-1.956928839,3.8761,0.664794007,5.4036,0,79,79,472,1,741_2b218fb015e3da83db73cacdb52e61e0c2534c1fe255bb1c5c74d47f_circblurint.jpg,3.140096,0.448584,circularblurringint,keaz01,2022-06-14_12h06.06.244,ratings,2022.1.1,Win32,60.85316132
-0.168539326,5.0036,-0.692883895,5.9391,0,80,80,395,1,663_aaf52107fe3a86392530d88b34e86f9d2b6820714cad98d1e3c2cb67_circblurext.jpg,2.58766,0.0918696,circularblurringext,keaz01,2022-06-14_12h06.06.244,ratings,2022.1.1,Win32,60.85316132
-1.5917603,1.4369,0.702247191,2.3553,0,81,81,249,1,414_0187bdf7007109b487865b6a9d388997a6817acf052a6a7cdd5b39d9_blur.jpg,-2.786708,-1.133056,blurring,keaz01,2022-06-14_12h06.06.244,ratings,2022.1.1,Win32,60.85316132
2.265917603,1.7879,2.18164794,2.8207,0,82,82,12,1,39_2fafccaa4dc69045a05845f59c6b3cd2edcf7e0e0c108b24e553afe0_orig.jpg,2.022756,0.463548,original,keaz01,2022-06-14_12h06.06.244,ratings,2022.1.1,Win32,60.85316132
2.827715356,1.9957,2.883895131,2.9475,0,83,83,223,1,403_57ac47f43882fc031a6067b1a388c0b2cbe8708dcbd2ff1019932eff_bw.jpg,-3.333332,-1.396824,blackwhite,keaz01,2022-06-14_12h06.06.244,ratings,2022.1.1,Win32,60.85316132
2.911985019,1.7079,3.024344569,2.748,0,84,84,7,1,28_6318543b74eeb646a1735477ebc023fdc9ac3849bc0db1957c272a26_bw.jpg,2.811244,-0.74584,blackwhite,keaz01,2022-06-14_12h06.06.244,ratings,2022.1.1,Win32,60.85316132
2.34082397,1.51,2.612359551,3.1203,0,85,85,338,1,492_a1a4d288d3bc486c83c3b6a835c42891989f5ba781633932298a7676_edges.jpg,3.406892,-0.44522,edges,keaz01,2022-06-14_12h06.06.244,ratings,2022.1.1,Win32,60.85316132
-3.745318352,2.0709,-1.076779026,3.9155,0,86,86,533,1,915_dc9fd40a3b5d64a180833a7bac86e7556c24f681f473fe255e41f936_circblurext.jpg,-3.09294,-0.918696,circularblurringext,keaz01,2022-06-14_12h06.06.244,ratings,2022.1.1,Win32,60.85316132
-3.520599251,11.1539,-3.052434457,12.8194,0,87,87,210,1,394_8e3a0cb945144d53bd1ace04b6256237ed9dcbbd9cb83f8a4886b0e6_orig.jpg,-2.593884,2.651956,original,keaz01,2022-06-14_12h06.06.244,ratings,2022.1.1,Win32,60.85316132
2.031835206,3.6718,2.556179775,4.6657,0,88,88,326,1,468_8b69b13120daebadd8a4a3166e1419f2404395cba231307a4efa9fde_edges.jpg,2.031744,0.2539684,edges,keaz01,2022-06-14_12h06.06.244,ratings,2022.1.1,Win32,60.85316132
-1.001872659,26.76,-0.814606742,31.3198,0,89,89,582,1,1225_59c67a821456f2cce3e5acf66d7f00076bd02caffc984c1eb0df794e_orig.jpg,-0.444444,3.809524,original,keaz01,2022-06-14_12h06.06.244,ratings,2022.1.1,Win32,60.85316132
2.200374532,2.3271,1.282771536,3.3583,0,90,90,90,1,258_d26019382777d2159a974a7654923e71598135ce2cd710cea1f92865_orig.jpg,3.497684,-0.61104,original,keaz01,2022-06-14_12h06.06.244,ratings,2022.1.1,Win32,60.85316132
2.911985019,1.8988,2.911985019,3.8107,0,91,91,566,1,1037_e2eb929a6de79a63ce6cfe5321fcb74a203b134e4094932d90b01d99_edges.jpg,2.651956,0.0,edges,keaz01,2022-06-14_12h06.06.244,ratings,2022.1.1,Win32,60.85316132
2.837078652,1.4704,2.902621723,2.3711,0,92,92,188,1,369_c99797771115d7627d4abe3415f814497288f91a7be1a04c17c776b9_edges.jpg,3.619824,-0.174216,edges,keaz01,2022-06-14_12h06.06.244,ratings,2022.1.1,Win32,60.85316132
1.001872659,1.7412,1.254681648,2.5732,0,93,93,94,1,258_d26019382777d2159a974a7654923e71598135ce2cd710cea1f92865_circblurint.jpg,3.497684,-0.61104,circularblurringint,keaz01,2022-06-14_12h06.06.244,ratings,2022.1.1,Win32,60.85316132
0.308988764,5.9034,0.383895131,6.8444,0,94,94,125,1,347_27f0e47c2722605b950ccf9fa900f78271e4c3c874064ab5dacac160_circblurext.jpg,1.838948,0.3097172,circularblurringext,keaz01,2022-06-14_12h06.06.244,ratings,2022.1.1,Win32,60.85316132
2.921348315,1.4111,2.921348315,2.211,0,95,95,114,1,332_4d584229bdae2e1782f77f0e953e528f13c3dfa79b4b94736c0310fa_orig.jpg,3.157348,0.483092,original,keaz01,2022-06-14_12h06.06.244,ratings,2022.1.1,Win32,60.85316132
-0.47752809,4.4119,0.833333333,5.3642,0,96,96,221,1,396_208259ea431d47bb7f3946213eb099834eb119756ce304ad473d4d9f_circblurext.jpg,2.857144,-0.3809524,circularblurringext,keaz01,2022-06-14_12h06.06.244,ratings,2022.1.1,Win32,60.85316132
3.043071161,1.5054,3.014981273,2.4037,0,97,97,448,1,709_69c01dcde028a2a1a913f1a2a5026ae1748484f75c89217a040c6791_circblurint.jpg,1.432444,-0.01935732,circularblurringint,keaz01,2022-06-14_12h06.06.244,ratings,2022.1.1,Win32,60.85316132
2.949438202,1.6788,2.865168539,2.6068,0,98,98,520,1,860_05c4e22518a30d3d2add458a8fc6488f87b9b02dd8e385ded939f025_circblurint.jpg,1.955092,0.3097172,circularblurringint,keaz01,2022-06-14_12h06.06.244,ratings,2022.1.1,Win32,60.85316132
-3.998127341,1.5421,-1.43258427,6.5433,0,99,99,529,1,915_dc9fd40a3b5d64a180833a7bac86e7556c24f681f473fe255e41f936_bw.jpg,-3.09294,-0.918696,blackwhite,keaz01,2022-06-14_12h06.06.244,ratings,2022.1.1,Win32,60.85316132
-1.029962547,1.8707,-1.020599251,2.6455,0,100,100,363,1,508_a7a9519cdc7aad6844030f4e6cd96cffd1b9c49b71e20ea52789bda2_blur.jpg,-3.000388,-1.29694,blurring,keaz01,2022-06-14_12h06.06.244,ratings,2022.1.1,Win32,60.85316132
2.059925094,2.5207,1.470037453,3.7726,0,101,101,482,1,759_95e1c46ed9a337414d5c8eada8fa8b9632e18751f5ce6ed587806e91_edges.jpg,2.126984,0.0,edges,keaz01,2022-06-14_12h06.06.244,ratings,2022.1.1,Win32,60.85316132
0.720973783,12.6536,-1.011235955,6.7266,0,102,102,407,1,686_6745b57686ad5d1bd6cf3e7ed5bc0243a154f8939e88e30321dfcfdb_circblurext.jpg,-1.523808,3.650792,circularblurringext,keaz01,2022-06-14_12h06.06.244,ratings,2022.1.1,Win32,60.85316132
2.02247191,3.8766,1.769662921,5.5717,0,103,103,176,1,368_6507b94d7d0199f14efd3706db30c9c44b96085f84e9cc7792e3e0ae_edges.jpg,1.959544,0.400336,edges,keaz01,2022-06-14_12h06.06.244,ratings,2022.1.1,Win32,60.85316132
2.294007491,3.5476,2.18164794,4.9497,0,104,104,340,1,492_a1a4d288d3bc486c83c3b6a835c42891989f5ba781633932298a7676_circblurint.jpg,3.406892,-0.44522,circularblurringint,keaz01,2022-06-14_12h06.06.244,ratings,2022.1.1,Win32,60.85316132
2.968164794,4.4368,2.902621723,5.5202,0,105,105,46,1,92_5d20d78a8e57e628c6930676473a4e0a485e715841efd6286c660020_circblurint.jpg,2.126984,0.0,circularblurringint,keaz01,2022-06-14_12h06.06.244,ratings,2022.1.1,Win32,60.85316132
1.001872659,7.7462,1.629213483,10.0035,0,106,106,128,1,349_18d92ef5c21ca70a3dd237aad251594e1688bbe01d8cff37b89c46b8_edges.jpg,-2.74874,-1.258228,edges,keaz01,2022-06-14_12h06.06.244,ratings,2022.1.1,Win32,60.85316132
2.743445693,2.4701,2.359550562,5.1791,0,107,107,469,1,741_2b218fb015e3da83db73cacdb52e61e0c2534c1fe255bb1c5c74d47f_bw.jpg,3.140096,0.448584,blackwhite,keaz01,2022-06-14_12h06.06.244,ratings,2022.1.1,Win32,60.85316132
0.983146067,2.2873,0.861423221,3.2378,0,108,108,581,1,1061_665178b9cb0bc869cc2e2b68def4838db04e66f9531098fb75875a09_circblurext.jpg,0.3492064,-0.3174604,circularblurringext,keaz01,2022-06-14_12h06.06.244,ratings,2022.1.1,Win32,60.85316132
0.945692884,1.3118,0.852059925,2.2715,0,109,109,71,1,172_c641c6c56ca6b594b773084e1363c852abdb65f988d7ff802ee503f2_circblurext.jpg,0.379572,0.01725328,circularblurringext,keaz01,2022-06-14_12h06.06.244,ratings,2022.1.1,Win32,60.85316132
-3.876404494,1.637,-1.985018727,2.8918,0,110,110,532,1,915_dc9fd40a3b5d64a180833a7bac86e7556c24f681f473fe255e41f936_circblurint.jpg,-3.09294,-0.918696,circularblurringint,keaz01,2022-06-14_12h06.06.244,ratings,2022.1.1,Win32,60.85316132
-2.996254682,3.9129,-2.958801498,6.4928,0,111,111,106,1,284_cdcbd54fc995081ac95c8b2c37a19cebb341f61a8eb268cee1623492_circblurint.jpg,-1.015872,2.095236,circularblurringint,keaz01,2022-06-14_12h06.06.244,ratings,2022.1.1,Win32,60.85316132
-3.93258427,3.4707,-3.071161049,4.5286,0,112,112,574,1,1039_d64da8480fc6e94dcdc513237d600570ae0b9fe48795ac6a8b2d29a7_circblurint.jpg,-2.507936,-1.142856,circularblurringint,keaz01,2022-06-14_12h06.06.244,ratings,2022.1.1,Win32,60.85316132
-1.029962547,1.8893,-0.243445693,3.089,0,113,113,385,1,646_577760d718dab44c6f04d77408c5644a120065ce07a9503957d0850a_bw.jpg,-2.690668,2.61324,blackwhite,keaz01,2022-06-14_12h06.06.244,ratings,2022.1.1,Win32,60.85316132
1.947565543,2.3481,0.262172285,4.1652,0,114,114,471,1,741_2b218fb015e3da83db73cacdb52e61e0c2534c1fe255bb1c5c74d47f_blur.jpg,3.140096,0.448584,blurring,keaz01,2022-06-14_12h06.06.244,ratings,2022.1.1,Win32,60.85316132
-1.11423221,1.6895,-0.337078652,2.5131,0,115,115,195,1,379_eeaa6d9bf5a4ef205dc48bc505cf3a7f24ea86e99af9b371e03602a7_blur.jpg,-0.3926308,2.88936,blurring,keaz01,2022-06-14_12h06.06.244,ratings,2022.1.1,Win32,60.85316132
0.31835206,2.5382,0.561797753,3.3102,0,116,116,404,1,686_6745b57686ad5d1bd6cf3e7ed5bc0243a154f8939e88e30321dfcfdb_edges.jpg,-1.523808,3.650792,edges,keaz01,2022-06-14_12h06.06.244,ratings,2022.1.1,Win32,60.85316132
0.168539326,3.5819,0.383895131,4.554,0,117,117,459,1,720_483c541c48959a597fcf44320941afaf8b7695105f90d65b5f6b30f2_blur.jpg,2.158732,-0.2539684,blurring,keaz01,2022-06-14_12h06.06.244,ratings,2022.1.1,Win32,60.85316132
-3.848314607,1.9536,-3.033707865,7.0946,0,118,118,135,1,349_8809a67686d34844c915d7700e2ea72ad1c02ae232ae0d3cc0e458d4_blur.jpg,-3.619048,-0.2857144,blurring,keaz01,2022-06-14_12h06.06.244,ratings,2022.1.1,Win32,60.85316132
-2.059925094,2.1203,-1.161048689,3.2064,0,119,119,345,1,494_5c6c3b85a2734a43c24bfe337d42ffcc82b7347227804d01c784cef4_blur.jpg,0.03871468,0.0,blurring,keaz01,2022-06-14_12h06.06.244,ratings,2022.1.1,Win32,60.85316132
2.18164794,1.8141,1.647940075,2.7549,0,120,120,146,1,354_e46c3ec6fb00773f64f2bcd212385f253c389808fe724b7cf8611051_edges.jpg,2.018292,0.0,edges,keaz01,2022-06-14_12h06.06.244,ratings,2022.1.1,Win32,60.85316132
2.106741573,1.3752,2.219101124,2.2631,0,121,121,164,1,361_b5541309527dc3c2422f45a95ebb0ed32005e6fe10d0489a1ff1fbdc_edges.jpg,-3.987612,-0.2516452,edges,keaz01,2022-06-14_12h06.06.244,ratings,2022.1.1,Win32,60.85316132
3.061797753,1.4542,2.97752809,2.1984,0,122,122,190,1,369_c99797771115d7627d4abe3415f814497288f91a7be1a04c17c776b9_circblurint.jpg,3.619824,-0.174216,circularblurringint,keaz01,2022-06-14_12h06.06.244,ratings,2022.1.1,Win32,60.85316132
-0.468164794,2.3405,-0.271535581,3.1963,0,123,123,205,1,381_5935a9f9796adce2f1539af6c75bcdc0c80d847a2ce9b77cf59b7672_bw.jpg,-1.327432,-0.442476,blackwhite,keaz01,2022-06-14_12h06.06.244,ratings,2022.1.1,Win32,60.85316132
2.462546816,1.6424,2.256554307,2.8592,0,124,124,468,1,741_2b218fb015e3da83db73cacdb52e61e0c2534c1fe255bb1c5c74d47f_orig.jpg,3.140096,0.448584,original,keaz01,2022-06-14_12h06.06.244,ratings,2022.1.1,Win32,60.85316132
2.949438202,1.2707,2.705992509,2.2222,0,125,125,526,1,877_cab3efed0c9ff4552037df6c1ea4ea9713f915c94592a14dbf2799da_circblurint.jpg,3.174604,0.3174604,circularblurringint,keaz01,2022-06-14_12h06.06.244,ratings,2022.1.1,Win32,60.85316132
-3.960674157,1.748,-3.08988764,3.2597,0,126,126,357,1,500_3b520c7f352afa1a9f8c07e56cc0588cdc04d25ff6e7b602b5e280cb_blur.jpg,-0.8328,3.11766,blurring,keaz01,2022-06-14_12h06.06.244,ratings,2022.1.1,Win32,60.85316132
2.958801498,1.4603,2.97752809,2.4125,0,127,127,184,1,369_98db62a1bdabfd1bc551180da6658005b461585cd21614633cf76470_circblurint.jpg,2.190476,-0.03174604,circularblurringint,keaz01,2022-06-14_12h06.06.244,ratings,2022.1.1,Win32,60.85316132
-2.387640449,9.4198,-1.217228464,10.3973,0,128,128,573,1,1039_d64da8480fc6e94dcdc513237d600570ae0b9fe48795ac6a8b2d29a7_blur.jpg,-2.507936,-1.142856,blurring,keaz01,2022-06-14_12h06.06.244,ratings,2022.1.1,Win32,60.85316132
2.546816479,1.6207,2.106741573,2.5061,0,129,129,374,1,620_9674719009d75dcfeaed7f15932c43e1fd1af5e25d47b8aadd61efe2_edges.jpg,-0.561364,1.142084,edges,keaz01,2022-06-14_12h06.06.244,ratings,2022.1.1,Win32,60.85316132
2.949438202,1.4211,2.996254682,2.3929,0,130,130,72,1,236_f645730e1eb06155418c9a571329cc7fa320654fcaaedf1048b5cc11_orig.jpg,2.253968,0.0,original,keaz01,2022-06-14_12h06.06.244,ratings,2022.1.1,Win32,60.85316132
-3.782771536,1.7614,-3.099250936,3.3373,0,131,131,88,1,243_beddb302dcb21071d88c8d2cab07002050d36b3001ef28f89389fa56_circblurint.jpg,-0.3450656,-0.2070392,circularblurringint,keaz01,2022-06-14_12h06.06.244,ratings,2022.1.1,Win32,60.85316132
-3.979400749,1.765,-2.97752809,3.7729,0,132,132,162,1,361_b5541309527dc3c2422f45a95ebb0ed32005e6fe10d0489a1ff1fbdc_orig.jpg,-3.987612,-0.2516452,original,keaz01,2022-06-14_12h06.06.244,ratings,2022.1.1,Win32,60.85316132
2.088014981,1.5099,1.54494382,2.5658,0,133,133,68,1,172_c641c6c56ca6b594b773084e1363c852abdb65f988d7ff802ee503f2_edges.jpg,0.379572,0.01725328,edges,keaz01,2022-06-14_12h06.06.244,ratings,2022.1.1,Win32,60.85316132
2.968164794,1.4111,2.865168539,2.5709,0,134,134,64,1,156_08e8cf8f04630e9213e610580de73f51572d1d589878648700bae4dc_circblurint.jpg,2.222224,0.0,circularblurringint,keaz01,2022-06-14_12h06.06.244,ratings,2022.1.1,Win32,60.85316132
2.902621723,2.2453,3.043071161,3.7971,0,135,135,1,1,13_771f4fcf0a212d25d6a78565e7f34cc5ddd823e7afbdc77ef063326e_bw.jpg,2.190476,0.0,blackwhite,keaz01,2022-06-14_12h06.06.244,ratings,2022.1.1,Win32,60.85316132
2.855805243,4.795,-2.003745318,6.1088,0,136,136,360,1,508_a7a9519cdc7aad6844030f4e6cd96cffd1b9c49b71e20ea52789bda2_orig.jpg,-3.000388,-1.29694,original,keaz01,2022-06-14_12h06.06.244,ratings,2022.1.1,Win32,60.85316132
-1.769662921,9.4877,-0.627340824,15.9271,0,137,137,208,1,381_5935a9f9796adce2f1539af6c75bcdc0c80d847a2ce9b77cf59b7672_circblurint.jpg,-1.327432,-0.442476,circularblurringint,keaz01,2022-06-14_12h06.06.244,ratings,2022.1.1,Win32,60.85316132
2.481273408,2.6944,1.058052434,6.332,0,138,138,394,1,663_aaf52107fe3a86392530d88b34e86f9d2b6820714cad98d1e3c2cb67_circblurint.jpg,2.58766,0.0918696,circularblurringint,keaz01,2022-06-14_12h06.06.244,ratings,2022.1.1,Win32,60.85316132
0.683520599,5.9664,0.065543071,8.104,0,139,139,45,1,92_5d20d78a8e57e628c6930676473a4e0a485e715841efd6286c660020_blur.jpg,2.126984,0.0,blurring,keaz01,2022-06-14_12h06.06.244,ratings,2022.1.1,Win32,60.85316132
2.602996255,2.6273,1.198501873,4.1896,0,140,140,151,1,355_00a76f54934d36566dd0e7b091b8aa6a56d8e6b32d349aa578a10b45_bw.jpg,2.910052,0.3439152,blackwhite,keaz01,2022-06-14_12h06.06.244,ratings,2022.1.1,Win32,60.85316132
-2.003745318,6.98,-1.507490637,8.0862,0,141,141,399,1,683_a004ad18331da968da5debdd15e1447dd7748750af0bc6c57b844200_blur.jpg,-2.91956,2.466524,blurring,keaz01,2022-06-14_12h06.06.244,ratings,2022.1.1,Win32,60.85316132
1.928838951,3.9928,1.38576779,6.2085,0,142,142,110,1,293_3dfdfafc0c6a54b2da7453750ac281f7718c0b3337b0a74c4563d6bd_edges.jpg,-2.574524,2.632596,edges,keaz01,2022-06-14_12h06.06.244,ratings,2022.1.1,Win32,60.85316132
2.097378277,4.7713,0.524344569,6.4773,0,143,143,209,1,381_5935a9f9796adce2f1539af6c75bcdc0c80d847a2ce9b77cf59b7672_circblurext.jpg,-1.327432,-0.442476,circularblurringext,keaz01,2022-06-14_12h06.06.244,ratings,2022.1.1,Win32,60.85316132
2.509363296,2.2261,1.43258427,3.6262,0,144,144,439,1,700_59cb565f134f1afd066d7b6d936c6511b7cb76de0e9cbb5ce15124ad_bw.jpg,0.0,0.0,blackwhite,keaz01,2022-06-14_12h06.06.244,ratings,2022.1.1,Win32,60.85316132
-3.951310861,2.5363,-2.088014981,7.3589,0,145,145,251,1,414_0187bdf7007109b487865b6a9d388997a6817acf052a6a7cdd5b39d9_circblurext.jpg,-2.786708,-1.133056,circularblurringext,keaz01,2022-06-14_12h06.06.244,ratings,2022.1.1,Win32,60.85316132
-3.923220974,1.6394,-3.174157303,2.7113,0,146,146,167,1,361_b5541309527dc3c2422f45a95ebb0ed32005e6fe10d0489a1ff1fbdc_circblurext.jpg,-3.987612,-0.2516452,circularblurringext,keaz01,2022-06-14_12h06.06.244,ratings,2022.1.1,Win32,60.85316132
-0.205992509,2.8302,0.308988764,5.4867,0,147,147,86,1,243_beddb302dcb21071d88c8d2cab07002050d36b3001ef28f89389fa56_edges.jpg,-0.3450656,-0.2070392,edges,keaz01,2022-06-14_12h06.06.244,ratings,2022.1.1,Win32,60.85316132
2.893258427,2.3638,2.958801498,3.5798,0,148,148,37,1,82_43f4d5aec7c2e5bd495473f6708a0f2d47c9fe34e1fe9436646cb036_bw.jpg,2.022756,0.505688,blackwhite,keaz01,2022-06-14_12h06.06.244,ratings,2022.1.1,Win32,60.85316132
-3.923220974,2.8159,-3.117977528,7.8875,0,149,149,318,1,460_e06b3af7ff2f2bfb5f9b6e3d5dc25b9aaa40b84823fac8fd934621bd_orig.jpg,-3.430992,-1.607468,original,keaz01,2022-06-14_12h06.06.244,ratings,2022.1.1,Win32,60.85316132
3.005617978,1.5606,2.93071161,2.3702,0,150,150,61,1,156_08e8cf8f04630e9213e610580de73f51572d1d589878648700bae4dc_bw.jpg,2.222224,0.0,blackwhite,keaz01,2022-06-14_12h06.06.244,ratings,2022.1.1,Win32,60.85316132
2.808988764,2.6214,2.911985019,3.5204,0,151,151,541,1,1005_b980c0747d20935bc63cc27a9e05ce2ff5bae98f859872ec48edd7f5_bw.jpg,3.428572,-0.476192,blackwhite,keaz01,2022-06-14_12h06.06.244,ratings,2022.1.1,Win32,60.85316132
-3.923220974,1.7588,-3.014981273,2.9201,0,152,152,244,1,411_adfd0d5782129756321ff671d0cfb712528504c66c863df11aabd1e7_circblurint.jpg,-3.392332,-1.369576,circularblurringint,keaz01,2022-06-14_12h06.06.244,ratings,2022.1.1,Win32,60.85316132
-2.443820225,1.9636,-2.734082397,10.2593,0,153,153,87,1,243_beddb302dcb21071d88c8d2cab07002050d36b3001ef28f89389fa56_blur.jpg,-0.3450656,-0.2070392,blurring,keaz01,2022-06-14_12h06.06.244,ratings,2022.1.1,Win32,60.85316132
-1.039325843,2.5874,-0.739700375,11.3786,0,154,154,189,1,369_c99797771115d7627d4abe3415f814497288f91a7be1a04c17c776b9_blur.jpg,3.619824,-0.174216,blurring,keaz01,2022-06-14_12h06.06.244,ratings,2022.1.1,Win32,60.85316132
-3.061797753,4.259,-1.170411985,49.0656,0,155,155,33,1,60_ad52063167538de24f94d7dfd04808cb94cf8f426c40871d2f126505_blur.jpg,2.158732,0.0,blurring,keaz01,2022-06-14_12h06.06.244,ratings,2022.1.1,Win32,60.85316132
-3.895131086,2.4873,-2.893258427,3.8606,0,156,156,355,1,500_3b520c7f352afa1a9f8c07e56cc0588cdc04d25ff6e7b602b5e280cb_bw.jpg,-0.8328,3.11766,blackwhite,keaz01,2022-06-14_12h06.06.244,ratings,2022.1.1,Win32,60.85316132
0.449438202,3.3207,0.374531835,4.6209,0,157,157,506,1,855_66d893451dfd1e7615132071c6c8a82b02dc2b37781cd89400883b26_edges.jpg,2.69484,0.2143624,edges,keaz01,2022-06-14_12h06.06.244,ratings,2022.1.1,Win32,60.85316132
2.911985019,1.8572,2.921348315,2.9134,0,158,158,175,1,368_6507b94d7d0199f14efd3706db30c9c44b96085f84e9cc7792e3e0ae_bw.jpg,1.959544,0.400336,blackwhite,keaz01,2022-06-14_12h06.06.244,ratings,2022.1.1,Win32,60.85316132
2.893258427,1.571,2.893258427,2.6477,0,159,159,109,1,293_3dfdfafc0c6a54b2da7453750ac281f7718c0b3337b0a74c4563d6bd_bw.jpg,-2.574524,2.632596,blackwhite,keaz01,2022-06-14_12h06.06.244,ratings,2022.1.1,Win32,60.85316132
2.134831461,7.3702,2.106741573,12.1604,0,160,160,410,1,687_e3b018945792a574962235c88c553b7c318c75eec2596478e8a7b877_edges.jpg,3.63918,-0.42586,edges,keaz01,2022-06-14_12h06.06.244,ratings,2022.1.1,Win32,60.85316132
2.940074906,2.1457,2.294007491,4.8998,0,161,161,154,1,355_00a76f54934d36566dd0e7b091b8aa6a56d8e6b32d349aa578a10b45_circblurint.jpg,2.910052,0.3439152,circularblurringint,keaz01,2022-06-14_12h06.06.244,ratings,2022.1.1,Win32,60.85316132
2.846441948,2.1647,2.893258427,3.2947,0,162,162,198,1,380_34772591c787182a37724027eac6948ebc9d4064f6a601d23b923b8e_orig.jpg,2.222224,-0.063492,original,keaz01,2022-06-14_12h06.06.244,ratings,2022.1.1,Win32,60.85316132
0.674157303,2.8369,1.891385768,4.7319,0,163,163,388,1,646_577760d718dab44c6f04d77408c5644a120065ce07a9503957d0850a_circblurint.jpg,-2.690668,2.61324,circularblurringint,keaz01,2022-06-14_12h06.06.244,ratings,2022.1.1,Win32,60.85316132
1.526217228,2.2281,1.516853933,3.2874,0,164,164,281,1,440_9bf7e8609729bf888835168834da6c3ff30b75d0d4f36e2ee6918bcc_circblurext.jpg,-2.284164,2.710028,circularblurringext,keaz01,2022-06-14_12h06.06.244,ratings,2022.1.1,Win32,60.85316132
0.683520599,2.2963,1.132958801,3.4642,0,165,165,196,1,379_eeaa6d9bf5a4ef205dc48bc505cf3a7f24ea86e99af9b371e03602a7_circblurint.jpg,-0.3926308,2.88936,circularblurringint,keaz01,2022-06-14_12h06.06.244,ratings,2022.1.1,Win32,60.85316132
-1.338951311,2.4207,-2.003745318,3.9107,0,166,166,563,1,1022_cf035e583d41a856836f8b0ae314ecbe79dffd9e40ef6a08cc26028f_circblurext.jpg,-0.2516452,3.05846,circularblurringext,keaz01,2022-06-14_12h06.06.244,ratings,2022.1.1,Win32,60.85316132
1.189138577,1.661,0.805243446,2.454,0,167,167,287,1,440_dc6413e2b65369ee2587f4d85621742fe4ca87392d0a8ad2ea7d94e3_circblurext.jpg,-3.016216,1.69404,circularblurringext,keaz01,2022-06-14_12h06.06.244,ratings,2022.1.1,Win32,60.85316132
0.617977528,2.4055,0.692883895,3.3432,0,168,168,377,1,620_9674719009d75dcfeaed7f15932c43e1fd1af5e25d47b8aadd61efe2_circblurext.jpg,-0.561364,1.142084,circularblurringext,keaz01,2022-06-14_12h06.06.244,ratings,2022.1.1,Win32,60.85316132
-3.576779026,1.747,-3.08988764,3.004,0,169,169,161,1,358_157f8ac929713531a15b1ecf115e7b659cb90e83d675251e368d165f_circblurext.jpg,-3.777776,-0.571428,circularblurringext,keaz01,2022-06-14_12h06.06.244,ratings,2022.1.1,Win32,60.85316132
1.395131086,1.7875,0.702247191,2.6706,0,170,170,47,1,92_5d20d78a8e57e628c6930676473a4e0a485e715841efd6286c660020_circblurext.jpg,2.126984,0.0,circularblurringext,keaz01,2022-06-14_12h06.06.244,ratings,2022.1.1,Win32,60.85316132
2.18164794,2.5428,1.27340824,3.5653,0,171,171,592,1,1228_557412d34d6a70b7c5d222e030aa485b351a4574e8ba1a3112d1d13d_circblurint.jpg,2.137444,0.703464,circularblurringint,keaz01,2022-06-14_12h06.06.244,ratings,2022.1.1,Win32,60.85316132
0.692883895,3.3968,0.889513109,4.4946,0,172,172,19,1,48_2cc936b2483ab2944c9158e163342b874ef6c1492fd8fca08c0e096e_bw.jpg,-1.264224,-0.779604,blackwhite,keaz01,2022-06-14_12h06.06.244,ratings,2022.1.1,Win32,60.85316132
2.013108614,1.7449,1.685393258,2.6728,0,173,173,182,1,369_98db62a1bdabfd1bc551180da6658005b461585cd21614633cf76470_edges.jpg,2.190476,-0.03174604,edges,keaz01,2022-06-14_12h06.06.244,ratings,2022.1.1,Win32,60.85316132
2.209737828,1.8947,1.610486891,2.8308,0,174,174,379,1,640_0ddb4981a5f5842ed5b4f7ef941be53779189df5e718b1fc5475ad80_bw.jpg,2.571428,-1.873016,blackwhite,keaz01,2022-06-14_12h06.06.244,ratings,2022.1.1,Win32,60.85316132
-2.247191011,1.6494,-1.460674157,2.4206,0,175,175,555,1,1014_a5c212ca979d482cf94c2db7697aba75620391a64b030ab7ad2bbecf_blur.jpg,-3.174604,-1.374372,blurring,keaz01,2022-06-14_12h06.06.244,ratings,2022.1.1,Win32,60.85316132
1.451310861,8.3882,2.125468165,6.1793,0,176,176,576,1,1061_665178b9cb0bc869cc2e2b68def4838db04e66f9531098fb75875a09_orig.jpg,0.3492064,-0.3174604,original,keaz01,2022-06-14_12h06.06.244,ratings,2022.1.1,Win32,60.85316132
0.486891386,1.962,0.280898876,3.01,0,177,177,587,1,1225_59c67a821456f2cce3e5acf66d7f00076bd02caffc984c1eb0df794e_circblurext.jpg,-0.444444,3.809524,circularblurringext,keaz01,2022-06-14_12h06.06.244,ratings,2022.1.1,Win32,60.85316132
0.533707865,1.8211,0.496254682,2.7493,0,178,178,567,1,1037_e2eb929a6de79a63ce6cfe5321fcb74a203b134e4094932d90b01d99_blur.jpg,2.651956,0.0,blurring,keaz01,2022-06-14_12h06.06.244,ratings,2022.1.1,Win32,60.85316132
1.395131086,3.3325,1.076779026,7.8204,0,179,179,102,1,284_cdcbd54fc995081ac95c8b2c37a19cebb341f61a8eb268cee1623492_orig.jpg,-1.015872,2.095236,original,keaz01,2022-06-14_12h06.06.244,ratings,2022.1.1,Win32,60.85316132
0.458801498,1.758,0.421348315,2.3899,0,180,180,425,1,692_e3e3bf88684fbbcdb9849a4147f9e2fcd39b0f083554a829aca4e9fa_circblurext.jpg,-0.44522,3.135888,circularblurringext,keaz01,2022-06-14_12h06.06.244,ratings,2022.1.1,Win32,60.85316132
0.543071161,1.7415,0.95505618,2.5577,0,181,181,556,1,1014_a5c212ca979d482cf94c2db7697aba75620391a64b030ab7ad2bbecf_circblurint.jpg,-3.174604,-1.374372,circularblurringint,keaz01,2022-06-14_12h06.06.244,ratings,2022.1.1,Win32,60.85316132
-0.786516854,9.5933,-0.664794007,10.7367,0,182,182,415,1,692_7d7eaf20e6de8956f0fca7500ace97a8599aa8b605a7d690cdb28724_bw.jpg,-2.063492,-1.26984,blackwhite,keaz01,2022-06-14_12h06.06.244,ratings,2022.1.1,Win32,60.85316132
2.996254682,1.5704,2.986891386,2.5537,0,183,183,564,1,1037_e2eb929a6de79a63ce6cfe5321fcb74a203b134e4094932d90b01d99_orig.jpg,2.651956,0.0,original,keaz01,2022-06-14_12h06.06.244,ratings,2022.1.1,Win32,60.85316132
2.256554307,7.2868,1.807116105,4.2705,0,184,184,402,1,686_6745b57686ad5d1bd6cf3e7ed5bc0243a154f8939e88e30321dfcfdb_orig.jpg,-1.523808,3.650792,original,keaz01,2022-06-14_12h06.06.244,ratings,2022.1.1,Win32,60.85316132
2.734082397,1.3375,2.874531835,2.304,0,185,185,460,1,720_483c541c48959a597fcf44320941afaf8b7695105f90d65b5f6b30f2_circblurint.jpg,2.158732,-0.2539684,circularblurringint,keaz01,2022-06-14_12h06.06.244,ratings,2022.1.1,Win32,60.85316132
-3.979400749,1.6134,-3.146067416,2.5572,0,186,186,528,1,915_dc9fd40a3b5d64a180833a7bac86e7556c24f681f473fe255e41f936_orig.jpg,-3.09294,-0.918696,original,keaz01,2022-06-14_12h06.06.244,ratings,2022.1.1,Win32,60.85316132
-0.308988764,5.2373,-1.844569288,6.0935,0,187,187,356,1,500_3b520c7f352afa1a9f8c07e56cc0588cdc04d25ff6e7b602b5e280cb_edges.jpg,-0.8328,3.11766,edges,keaz01,2022-06-14_12h06.06.244,ratings,2022.1.1,Win32,60.85316132
2.93071161,1.5655,2.902621723,2.3574,0,188,188,473,1,741_2b218fb015e3da83db73cacdb52e61e0c2534c1fe255bb1c5c74d47f_circblurext.jpg,3.140096,0.448584,circularblurringext,keaz01,2022-06-14_12h06.06.244,ratings,2022.1.1,Win32,60.85316132
2.921348315,2.0245,2.799625468,1.2241,0,189,189,559,1,1022_cf035e583d41a856836f8b0ae314ecbe79dffd9e40ef6a08cc26028f_bw.jpg,-0.2516452,3.05846,blackwhite,keaz01,2022-06-14_12h06.06.244,ratings,2022.1.1,Win32,60.85316132
0.627340824,6.2872,-1.441947566,4.3299,0,190,190,329,1,468_8b69b13120daebadd8a4a3166e1419f2404395cba231307a4efa9fde_circblurext.jpg,2.031744,0.2539684,circularblurringext,keaz01,2022-06-14_12h06.06.244,ratings,2022.1.1,Win32,60.85316132
0.561797753,3.893,-0.346441948,4.8138,0,191,191,397,1,683_a004ad18331da968da5debdd15e1447dd7748750af0bc6c57b844200_bw.jpg,-2.91956,2.466524,blackwhite,keaz01,2022-06-14_12h06.06.244,ratings,2022.1.1,Win32,60.85316132
2.827715356,1.3964,2.855805243,2.2706,0,192,192,24,1,59_8568373b727f29d67ba6ce4c360dd918c8b08b13495fca56bdda5e82_orig.jpg,2.064896,0.505688,original,keaz01,2022-06-14_12h06.06.244,ratings,2022.1.1,Win32,60.85316132
1.713483146,2.3204,0.936329588,3.0075,0,193,193,421,1,692_e3e3bf88684fbbcdb9849a4147f9e2fcd39b0f083554a829aca4e9fa_bw.jpg,-0.44522,3.135888,blackwhite,keaz01,2022-06-14_12h06.06.244,ratings,2022.1.1,Win32,60.85316132
-2.453183521,1.5255,-1.516853933,2.4535,0,194,194,327,1,468_8b69b13120daebadd8a4a3166e1419f2404395cba231307a4efa9fde_blur.jpg,2.031744,0.2539684,blurring,keaz01,2022-06-14_12h06.06.244,ratings,2022.1.1,Win32,60.85316132
-0.74906367,5.8175,0.63670412,6.7871,0,195,195,406,1,686_6745b57686ad5d1bd6cf3e7ed5bc0243a154f8939e88e30321dfcfdb_circblurint.jpg,-1.523808,3.650792,circularblurringint,keaz01,2022-06-14_12h06.06.244,ratings,2022.1.1,Win32,60.85316132
0.608614232,2.1939,-0.449438202,2.9701,0,196,196,97,1,267_792043debad81ce271cec5b3c3bd9d264efc13f362bec9c7a3f72fe7_bw.jpg,1.980616,0.2107036,blackwhite,keaz01,2022-06-14_12h06.06.244,ratings,2022.1.1,Win32,60.85316132
-3.951310861,1.5723,-3.099250936,2.7481,0,197,197,497,1,824_b1d91cc824ce0d3d383d3147da88d3d6dbaf6be918bab79e3ec8f501_circblurext.jpg,-3.645176,-1.432784,circularblurringext,keaz01,2022-06-14_12h06.06.244,ratings,2022.1.1,Win32,60.85316132
-0.205992509,2.9825,-0.290262172,3.7902,0,198,198,586,1,1225_59c67a821456f2cce3e5acf66d7f00076bd02caffc984c1eb0df794e_circblurint.jpg,-0.444444,3.809524,circularblurringint,keaz01,2022-06-14_12h06.06.244,ratings,2022.1.1,Win32,60.85316132
3.024344569,1.5401,2.996254682,2.34,0,199,199,145,1,354_e46c3ec6fb00773f64f2bcd212385f253c389808fe724b7cf8611051_bw.jpg,2.018292,0.0,blackwhite,keaz01,2022-06-14_12h06.06.244,ratings,2022.1.1,Win32,60.85316132
0.046816479,1.559,1.779026217,2.4226,0,200,200,465,1,736_bb85db1bcda8eb34299aa5791ac65a0a7c343266eb2d6e6e328ec0e1_blur.jpg,3.650792,-0.03174604,blurring,keaz01,2022-06-14_12h06.06.244,ratings,2022.1.1,Win32,60.85316132
-3.876404494,1.174,-3.080524345,2.0937,0,201,201,334,1,482_a1cd28915c5044c018195ab0fff10dcc95e385246b045a7cd4463ff7_circblurint.jpg,-3.361852,-1.555612,circularblurringint,keaz01,2022-06-14_12h06.06.244,ratings,2022.1.1,Win32,60.85316132
1.310861423,5.8846,0.486891386,7.0868,0,202,202,398,1,683_a004ad18331da968da5debdd15e1447dd7748750af0bc6c57b844200_edges.jpg,-2.91956,2.466524,edges,keaz01,2022-06-14_12h06.06.244,ratings,2022.1.1,Win32,60.85316132
-3.960674157,1.5564,-3.183520599,2.3404,0,203,203,126,1,349_18d92ef5c21ca70a3dd237aad251594e1688bbe01d8cff37b89c46b8_orig.jpg,-2.74874,-1.258228,original,keaz01,2022-06-14_12h06.06.244,ratings,2022.1.1,Win32,60.85316132
-3.202247191,5.0976,-3.361423221,6.1796,0,204,204,358,1,500_3b520c7f352afa1a9f8c07e56cc0588cdc04d25ff6e7b602b5e280cb_circblurint.jpg,-0.8328,3.11766,circularblurringint,keaz01,2022-06-14_12h06.06.244,ratings,2022.1.1,Win32,60.85316132
0.880149813,1.8037,2.003745318,2.8378,0,205,205,454,1,716_2ab64478147184c4df720a52cf621875addc9007cb2967e4a9a88909_circblurint.jpg,2.428484,0.0,circularblurringint,keaz01,2022-06-14_12h06.06.244,ratings,2022.1.1,Win32,60.85316132
-0.355805243,2.904,-0.205992509,3.5251,0,206,206,93,1,258_d26019382777d2159a974a7654923e71598135ce2cd710cea1f92865_blur.jpg,3.497684,-0.61104,blurring,keaz01,2022-06-14_12h06.06.244,ratings,2022.1.1,Win32,60.85316132
2.883895131,1.5203,2.958801498,2.5879,0,207,207,66,1,172_c641c6c56ca6b594b773084e1363c852abdb65f988d7ff802ee503f2_orig.jpg,0.379572,0.01725328,original,keaz01,2022-06-14_12h06.06.244,ratings,2022.1.1,Win32,60.85316132
-0.496254682,1.9549,-0.31835206,2.6872,0,208,208,99,1,267_792043debad81ce271cec5b3c3bd9d264efc13f362bec9c7a3f72fe7_blur.jpg,1.980616,0.2107036,blurring,keaz01,2022-06-14_12h06.06.244,ratings,2022.1.1,Win32,60.85316132
2.734082397,1.3434,1.975655431,2.2155,0,209,209,522,1,877_cab3efed0c9ff4552037df6c1ea4ea9713f915c94592a14dbf2799da_orig.jpg,3.174604,0.3174604,original,keaz01,2022-06-14_12h06.06.244,ratings,2022.1.1,Win32,60.85316132
-3.93258427,32.0837,-3.155430712,33.1567,0,210,210,537,1,986_a77edb21e78bc3a6aa7406517824596b3496ad6c657b6befb84cf370_blur.jpg,-3.906316,-0.60496,blurring,keaz01,2022-06-14_12h06.06.244,ratings,2022.1.1,Win32,60.85316132
-3.052434457,1.9803,-2.153558052,2.9881,0,211,211,530,1,915_dc9fd40a3b5d64a180833a7bac86e7556c24f681f473fe255e41f936_edges.jpg,-3.09294,-0.918696,edges,keaz01,2022-06-14_12h06.06.244,ratings,2022.1.1,Win32,60.85316132
-0.917602996,5.0214,-2.013108614,6.0894,0,212,212,386,1,646_577760d718dab44c6f04d77408c5644a120065ce07a9503957d0850a_edges.jpg,-2.690668,2.61324,edges,keaz01,2022-06-14_12h06.06.244,ratings,2022.1.1,Win32,60.85316132
0.552434457,2.8766,0.383895131,3.7085,0,213,213,177,1,368_6507b94d7d0199f14efd3706db30c9c44b96085f84e9cc7792e3e0ae_blur.jpg,1.959544,0.400336,blurring,keaz01,2022-06-14_12h06.06.244,ratings,2022.1.1,Win32,60.85316132
1.395131086,2.0733,0.112359551,3.4206,0,214,214,42,1,92_5d20d78a8e57e628c6930676473a4e0a485e715841efd6286c660020_orig.jpg,2.126984,0.0,original,keaz01,2022-06-14_12h06.06.244,ratings,2022.1.1,Win32,60.85316132
1.891385768,1.8373,1.058052434,2.9574,0,215,215,173,1,365_45a719cabbc9aa308c4fcb30d529489c6966ac4073874af84f665c61_circblurext.jpg,2.507936,-1.968252,circularblurringext,keaz01,2022-06-14_12h06.06.244,ratings,2022.1.1,Win32,60.85316132
2.902621723,2.0536,1.470037453,3.8897,0,216,216,200,1,380_34772591c787182a37724027eac6948ebc9d4064f6a601d23b923b8e_edges.jpg,2.222224,-0.063492,edges,keaz01,2022-06-14_12h06.06.244,ratings,2022.1.1,Win32,60.85316132
1.123595506,1.6104,0.936329588,2.5063,0,217,217,344,1,494_5c6c3b85a2734a43c24bfe337d42ffcc82b7347227804d01c784cef4_edges.jpg,0.03871468,0.0,edges,keaz01,2022-06-14_12h06.06.244,ratings,2022.1.1,Win32,60.85316132
1.70411985,1.8054,0.973782772,2.6777,0,218,218,303,1,453_54f106fd1d4b65fa4aa347407127fc30d49f791e81aee3a0bbe44489_blur.jpg,2.222224,0.0,blurring,keaz01,2022-06-14_12h06.06.244,ratings,2022.1.1,Win32,60.85316132
-3.904494382,1.6405,-3.202247191,2.6881,0,219,219,322,1,460_e06b3af7ff2f2bfb5f9b6e3d5dc25b9aaa40b84823fac8fd934621bd_circblurint.jpg,-3.430992,-1.607468,circularblurringint,keaz01,2022-06-14_12h06.06.244,ratings,2022.1.1,Win32,60.85316132
0.458801498,1.7717,0.973782772,2.6694,0,220,220,346,1,494_5c6c3b85a2734a43c24bfe337d42ffcc82b7347227804d01c784cef4_circblurint.jpg,0.03871468,0.0,circularblurringint,keaz01,2022-06-14_12h06.06.244,ratings,2022.1.1,Win32,60.85316132
3.033707865,1.3828,2.088014981,3.8066,0,221,221,523,1,877_cab3efed0c9ff4552037df6c1ea4ea9713f915c94592a14dbf2799da_bw.jpg,3.174604,0.3174604,blackwhite,keaz01,2022-06-14_12h06.06.244,ratings,2022.1.1,Win32,60.85316132
-2.387640449,1.9613,-0.983146067,3.7704,0,222,222,242,1,411_adfd0d5782129756321ff671d0cfb712528504c66c863df11aabd1e7_edges.jpg,-3.392332,-1.369576,edges,keaz01,2022-06-14_12h06.06.244,ratings,2022.1.1,Win32,60.85316132
-1.142322097,4.2959,-0.140449438,5.1873,0,223,223,153,1,355_00a76f54934d36566dd0e7b091b8aa6a56d8e6b32d349aa578a10b45_blur.jpg,2.910052,0.3439152,blurring,keaz01,2022-06-14_12h06.06.244,ratings,2022.1.1,Win32,60.85316132
-3.960674157,2.5922,-3.005617978,3.5441,0,224,224,240,1,411_adfd0d5782129756321ff671d0cfb712528504c66c863df11aabd1e7_orig.jpg,-3.392332,-1.369576,original,keaz01,2022-06-14_12h06.06.244,ratings,2022.1.1,Win32,60.85316132
0.355805243,1.9382,0.280898876,2.8264,0,225,225,339,1,492_a1a4d288d3bc486c83c3b6a835c42891989f5ba781633932298a7676_blur.jpg,3.406892,-0.44522,blurring,keaz01,2022-06-14_12h06.06.244,ratings,2022.1.1,Win32,60.85316132
-3.698501873,2.2036,-0.458801498,3.906,0,226,226,234,1,410_9633c4ff6e8888fcfca59a60ca86e9606d3e0736500a254101bdf295_orig.jpg,-0.3677892,2.981028,original,keaz01,2022-06-14_12h06.06.244,ratings,2022.1.1,Win32,60.85316132
-3.829588015,1.6705,-2.996254682,2.6771,0,227,227,136,1,349_8809a67686d34844c915d7700e2ea72ad1c02ae232ae0d3cc0e458d4_circblurint.jpg,-3.619048,-0.2857144,circularblurringint,keaz01,2022-06-14_12h06.06.244,ratings,2022.1.1,Win32,60.85316132
0.786516854,10.2361,-0.187265918,11.2455,0,228,228,95,1,258_d26019382777d2159a974a7654923e71598135ce2cd710cea1f92865_circblurext.jpg,3.497684,-0.61104,circularblurringext,keaz01,2022-06-14_12h06.06.244,ratings,2022.1.1,Win32,60.85316132
-0.224719101,4.0706,-1.441947566,5.6827,0,229,229,455,1,716_2ab64478147184c4df720a52cf621875addc9007cb2967e4a9a88909_circblurext.jpg,2.428484,0.0,circularblurringext,keaz01,2022-06-14_12h06.06.244,ratings,2022.1.1,Win32,60.85316132
2.855805243,1.4877,2.865168539,2.48,0,230,230,0,1,13_771f4fcf0a212d25d6a78565e7f34cc5ddd823e7afbdc77ef063326e_orig.jpg,2.190476,0.0,original,keaz01,2022-06-14_12h06.06.244,ratings,2022.1.1,Win32,60.85316132
0.861423221,2.8216,-0.271535581,3.871,0,231,231,9,1,28_6318543b74eeb646a1735477ebc023fdc9ac3849bc0db1957c272a26_blur.jpg,2.811244,-0.74584,blurring,keaz01,2022-06-14_12h06.06.244,ratings,2022.1.1,Win32,60.85316132
2.865168539,1.6049,1.348314607,2.5892,0,232,232,29,1,59_8568373b727f29d67ba6ce4c360dd918c8b08b13495fca56bdda5e82_circblurext.jpg,2.064896,0.505688,circularblurringext,keaz01,2022-06-14_12h06.06.244,ratings,2022.1.1,Win32,60.85316132
-0.187265918,3.3321,-0.898876404,5.3563,0,233,233,417,1,692_7d7eaf20e6de8956f0fca7500ace97a8599aa8b605a7d690cdb28724_blur.jpg,-2.063492,-1.26984,blurring,keaz01,2022-06-14_12h06.06.244,ratings,2022.1.1,Win32,60.85316132
-0.580524345,1.6624,0.028089888,2.4945,0,234,234,27,1,59_8568373b727f29d67ba6ce4c360dd918c8b08b13495fca56bdda5e82_blur.jpg,2.064896,0.505688,blurring,keaz01,2022-06-14_12h06.06.244,ratings,2022.1.1,Win32,60.85316132
-0.421348315,1.8551,-0.402621723,2.6152,0,235,235,369,1,616_05a637f5281666f53d4e2ef69351485fc21d629b37ee2006b2076eb6_blur.jpg,-2.380952,-0.832364,blurring,keaz01,2022-06-14_12h06.06.244,ratings,2022.1.1,Win32,60.85316132
2.808988764,1.5247,1.872659176,2.504,0,236,236,446,1,709_69c01dcde028a2a1a913f1a2a5026ae1748484f75c89217a040c6791_edges.jpg,1.432444,-0.01935732,edges,keaz01,2022-06-14_12h06.06.244,ratings,2022.1.1,Win32,60.85316132
2.059925094,1.7482,2.116104869,3.6601,0,237,237,438,1,700_59cb565f134f1afd066d7b6d936c6511b7cb76de0e9cbb5ce15124ad_orig.jpg,0.0,0.0,original,keaz01,2022-06-14_12h06.06.244,ratings,2022.1.1,Win32,60.85316132
0.767790262,1.8778,1.104868914,3.2056,0,238,238,44,1,92_5d20d78a8e57e628c6930676473a4e0a485e715841efd6286c660020_edges.jpg,2.126984,0.0,edges,keaz01,2022-06-14_12h06.06.244,ratings,2022.1.1,Win32,60.85316132
2.705992509,2.4289,0.168539326,4.8124,0,239,239,519,1,860_05c4e22518a30d3d2add458a8fc6488f87b9b02dd8e385ded939f025_blur.jpg,1.955092,0.3097172,blurring,keaz01,2022-06-14_12h06.06.244,ratings,2022.1.1,Win32,60.85316132
2.874531835,1.5559,2.93071161,2.5447,0,240,240,199,1,380_34772591c787182a37724027eac6948ebc9d4064f6a601d23b923b8e_bw.jpg,2.222224,-0.063492,blackwhite,keaz01,2022-06-14_12h06.06.244,ratings,2022.1.1,Win32,60.85316132
3.014981273,1.6873,0.973782772,3.3912,0,241,241,277,1,440_9bf7e8609729bf888835168834da6c3ff30b75d0d4f36e2ee6918bcc_bw.jpg,-2.284164,2.710028,blackwhite,keaz01,2022-06-14_12h06.06.244,ratings,2022.1.1,Win32,60.85316132
0.177902622,5.1094,0.767790262,5.9497,0,242,242,111,1,293_3dfdfafc0c6a54b2da7453750ac281f7718c0b3337b0a74c4563d6bd_blur.jpg,-2.574524,2.632596,blurring,keaz01,2022-06-14_12h06.06.244,ratings,2022.1.1,Win32,60.85316132
1.413857678,2.8041,1.132958801,3.8084,0,243,243,361,1,508_a7a9519cdc7aad6844030f4e6cd96cffd1b9c49b71e20ea52789bda2_bw.jpg,-3.000388,-1.29694,blackwhite,keaz01,2022-06-14_12h06.06.244,ratings,2022.1.1,Win32,60.85316132
2.106741573,1.6208,1.198501873,2.459,0,244,244,218,1,396_208259ea431d47bb7f3946213eb099834eb119756ce304ad473d4d9f_edges.jpg,2.857144,-0.3809524,edges,keaz01,2022-06-14_12h06.06.244,ratings,2022.1.1,Win32,60.85316132
-0.889513109,1.6473,-0.205992509,2.9033,0,245,245,171,1,365_45a719cabbc9aa308c4fcb30d529489c6966ac4073874af84f665c61_blur.jpg,2.507936,-1.968252,blurring,keaz01,2022-06-14_12h06.06.244,ratings,2022.1.1,Win32,60.85316132
0.608614232,1.9263,1.301498127,2.8944,0,246,246,56,1,137_0e6a04243c0a42a5e2528a2d181255ca2a4b7bd6e7978c5c2059c69f_edges.jpg,-0.95238,2.095236,edges,keaz01,2022-06-14_12h06.06.244,ratings,2022.1.1,Win32,60.85316132
-3.782771536,2.6799,-3.352059925,3.848,0,247,247,133,1,349_8809a67686d34844c915d7700e2ea72ad1c02ae232ae0d3cc0e458d4_bw.jpg,-3.619048,-0.2857144,blackwhite,keaz01,2022-06-14_12h06.06.244,ratings,2022.1.1,Win32,60.85316132
1.132958801,5.6948,0.290262172,2.8946,0,248,248,22,1,48_2cc936b2483ab2944c9158e163342b874ef6c1492fd8fca08c0e096e_circblurint.jpg,-1.264224,-0.779604,circularblurringint,keaz01,2022-06-14_12h06.06.244,ratings,2022.1.1,Win32,60.85316132
0.177902622,2.0249,-0.018726592,2.9767,0,249,249,375,1,620_9674719009d75dcfeaed7f15932c43e1fd1af5e25d47b8aadd61efe2_blur.jpg,-0.561364,1.142084,blurring,keaz01,2022-06-14_12h06.06.244,ratings,2022.1.1,Win32,60.85316132
2.790262172,2.0622,2.81835206,3.0223,0,250,250,73,1,236_f645730e1eb06155418c9a571329cc7fa320654fcaaedf1048b5cc11_bw.jpg,2.253968,0.0,blackwhite,keaz01,2022-06-14_12h06.06.244,ratings,2022.1.1,Win32,60.85316132
2.743445693,1.5311,2.893258427,2.9071,0,251,251,378,1,640_0ddb4981a5f5842ed5b4f7ef941be53779189df5e718b1fc5475ad80_orig.jpg,2.571428,-1.873016,original,keaz01,2022-06-14_12h06.06.244,ratings,2022.1.1,Win32,60.85316132
2.631086142,2.2549,0.514981273,3.6061,0,252,252,269,1,431_ab5a1dbbe9292ac7f74e276cdabcd372e2c1f852ff34bf7cc6646ef8_circblurext.jpg,3.102584,0.354334,circularblurringext,keaz01,2022-06-14_12h06.06.244,ratings,2022.1.1,Win32,60.85316132
1.629213483,1.7542,0.983146067,2.8796,0,253,253,428,1,694_7a14b8ab7c564dcb0f628c4de7f6cb54e4c5f6601f774bf167641c37_edges.jpg,1.819588,0.116144,edges,keaz01,2022-06-14_12h06.06.244,ratings,2022.1.1,Win32,60.85316132
1.676029963,3.0561,1.348314607,5.0884,0,254,254,80,1,242_85283f6935a89812ab229dcad9ba184529c9242ac3106d768ecf3ab3_edges.jpg,2.14918,-0.2949852,edges,keaz01,2022-06-14_12h06.06.244,ratings,2022.1.1,Win32,60.85316132
2.724719101,1.3889,0.842696629,3.1966,0,255,255,349,1,498_305b74cdc4784d9d25e72724302e5402def70177ea31ae7e25fab66b_bw.jpg,3.04762,-0.444444,blackwhite,keaz01,2022-06-14_12h06.06.244,ratings,2022.1.1,Win32,60.85316132
2.958801498,1.4542,2.940074906,2.3882,0,256,256,6,1,28_6318543b74eeb646a1735477ebc023fdc9ac3849bc0db1957c272a26_orig.jpg,2.811244,-0.74584,original,keaz01,2022-06-14_12h06.06.244,ratings,2022.1.1,Win32,60.85316132
2.93071161,2.0146,1.732209738,3.4306,0,257,257,300,1,453_54f106fd1d4b65fa4aa347407127fc30d49f791e81aee3a0bbe44489_orig.jpg,2.222224,0.0,original,keaz01,2022-06-14_12h06.06.244,ratings,2022.1.1,Win32,60.85316132
2.837078652,1.9495,1.254681648,3.4612,0,258,258,108,1,293_3dfdfafc0c6a54b2da7453750ac281f7718c0b3337b0a74c4563d6bd_orig.jpg,-2.574524,2.632596,original,keaz01,2022-06-14_12h06.06.244,ratings,2022.1.1,Win32,60.85316132
2.387640449,7.7208,0.730337079,8.7887,0,259,259,54,1,137_0e6a04243c0a42a5e2528a2d181255ca2a4b7bd6e7978c5c2059c69f_orig.jpg,-0.95238,2.095236,original,keaz01,2022-06-14_12h06.06.244,ratings,2022.1.1,Win32,60.85316132
0.365168539,2.0288,-0.205992509,2.8367,0,260,260,279,1,440_9bf7e8609729bf888835168834da6c3ff30b75d0d4f36e2ee6918bcc_blur.jpg,-2.284164,2.710028,blurring,keaz01,2022-06-14_12h06.06.244,ratings,2022.1.1,Win32,60.85316132
0.149812734,2.47,0.646067416,3.4449,0,261,261,441,1,700_59cb565f134f1afd066d7b6d936c6511b7cb76de0e9cbb5ce15124ad_blur.jpg,0.0,0.0,blurring,keaz01,2022-06-14_12h06.06.244,ratings,2022.1.1,Win32,60.85316132
2.902621723,1.4956,3.014981273,2.4395,0,262,262,577,1,1061_665178b9cb0bc869cc2e2b68def4838db04e66f9531098fb75875a09_bw.jpg,0.3492064,-0.3174604,blackwhite,keaz01,2022-06-14_12h06.06.244,ratings,2022.1.1,Win32,60.85316132
-3.904494382,1.6204,-3.267790262,4.1041,0,263,263,493,1,824_b1d91cc824ce0d3d383d3147da88d3d6dbaf6be918bab79e3ec8f501_bw.jpg,-3.645176,-1.432784,blackwhite,keaz01,2022-06-14_12h06.06.244,ratings,2022.1.1,Win32,60.85316132
2.958801498,1.8115,2.743445693,3.205,0,264,264,408,1,687_e3b018945792a574962235c88c553b7c318c75eec2596478e8a7b877_orig.jpg,3.63918,-0.42586,original,keaz01,2022-06-14_12h06.06.244,ratings,2022.1.1,Win32,60.85316132
1.75093633,1.7816,1.001872659,2.9254,0,265,265,484,1,759_95e1c46ed9a337414d5c8eada8fa8b9632e18751f5ce6ed587806e91_circblurint.jpg,2.126984,0.0,circularblurringint,keaz01,2022-06-14_12h06.06.244,ratings,2022.1.1,Win32,60.85316132
0.74906367,1.6874,1.142322097,2.754,0,266,266,347,1,494_5c6c3b85a2734a43c24bfe337d42ffcc82b7347227804d01c784cef4_circblurext.jpg,0.03871468,0.0,circularblurringext,keaz01,2022-06-14_12h06.06.244,ratings,2022.1.1,Win32,60.85316132
0.131086142,4.4207,-0.823970037,5.9143,0,267,267,514,1,858_2f6539ee36aba48c38dc716d4f7c3ae93367d6ddf23ab41745d4172c_circblurint.jpg,0.0623832,0.176752,circularblurringint,keaz01,2022-06-14_12h06.06.244,ratings,2022.1.1,Win32,60.85316132
2.631086142,2.5106,1.104868914,4.3537,0,268,268,265,1,431_ab5a1dbbe9292ac7f74e276cdabcd372e2c1f852ff34bf7cc6646ef8_bw.jpg,3.102584,0.354334,blackwhite,keaz01,2022-06-14_12h06.06.244,ratings,2022.1.1,Win32,60.85316132
1.217228464,1.9087,0.655430712,2.7566,0,269,269,542,1,1005_b980c0747d20935bc63cc27a9e05ce2ff5bae98f859872ec48edd7f5_edges.jpg,3.428572,-0.476192,edges,keaz01,2022-06-14_12h06.06.244,ratings,2022.1.1,Win32,60.85316132
-3.735955056,2.3873,-2.827715356,3.4873,0,270,270,159,1,358_157f8ac929713531a15b1ecf115e7b659cb90e83d675251e368d165f_blur.jpg,-3.777776,-0.571428,blurring,keaz01,2022-06-14_12h06.06.244,ratings,2022.1.1,Win32,60.85316132
-0.496254682,1.8446,-0.43071161,2.5964,0,271,271,3,1,13_771f4fcf0a212d25d6a78565e7f34cc5ddd823e7afbdc77ef063326e_blur.jpg,2.190476,0.0,blurring,keaz01,2022-06-14_12h06.06.244,ratings,2022.1.1,Win32,60.85316132
-3.904494382,1.4617,-3.267790262,2.5656,0,272,272,331,1,482_a1cd28915c5044c018195ab0fff10dcc95e385246b045a7cd4463ff7_bw.jpg,-3.361852,-1.555612,blackwhite,keaz01,2022-06-14_12h06.06.244,ratings,2022.1.1,Win32,60.85316132
-2.762172285,2.9253,-2.546816479,3.8133,0,273,273,400,1,683_a004ad18331da968da5debdd15e1447dd7748750af0bc6c57b844200_circblurint.jpg,-2.91956,2.466524,circularblurringint,keaz01,2022-06-14_12h06.06.244,ratings,2022.1.1,Win32,60.85316132
-0.187265918,2.7229,-1.498127341,4.5392,0,274,274,486,1,818_877aae033c31e3bbca4486321a5307f87cf53c576c546462d3daf194_orig.jpg,-1.277584,0.619436,original,keaz01,2022-06-14_12h06.06.244,ratings,2022.1.1,Win32,60.85316132
2.191011236,2.572,1.076779026,3.78,0,275,275,231,1,407_578d31d32e806706dde2563213f130b90e621abfed0e47ecabd85d27_blur.jpg,3.5873,-0.444444,blurring,keaz01,2022-06-14_12h06.06.244,ratings,2022.1.1,Win32,60.85316132
0.168539326,3.256,-0.63670412,4.3368,0,276,276,490,1,818_877aae033c31e3bbca4486321a5307f87cf53c576c546462d3daf194_circblurint.jpg,-1.277584,0.619436,circularblurringint,keaz01,2022-06-14_12h06.06.244,ratings,2022.1.1,Win32,60.85316132
0.730337079,2.0592,0.290262172,3.0202,0,277,277,305,1,453_54f106fd1d4b65fa4aa347407127fc30d49f791e81aee3a0bbe44489_circblurext.jpg,2.222224,0.0,circularblurringext,keaz01,2022-06-14_12h06.06.244,ratings,2022.1.1,Win32,60.85316132
1.376404494,1.4071,0.880149813,2.655,0,278,278,296,1,449_9c1e990a3480e5b51430fe76b0188e69ba2468fd6a866b88b2d0dd75_edges.jpg,0.095238,0.03174604,edges,keaz01,2022-06-14_12h06.06.244,ratings,2022.1.1,Win32,60.85316132
2.921348315,1.7092,1.357677903,4.0769,0,279,279,502,1,854_081a8409e4d6d10923b2dedcc16a3fca405fcd602e55a20d84cac69d_circblurint.jpg,3.088264,1.21538,circularblurringint,keaz01,2022-06-14_12h06.06.244,ratings,2022.1.1,Win32,60.85316132
1.582397004,1.5608,0.861423221,3.9286,0,280,280,26,1,59_8568373b727f29d67ba6ce4c360dd918c8b08b13495fca56bdda5e82_edges.jpg,2.064896,0.505688,edges,keaz01,2022-06-14_12h06.06.244,ratings,2022.1.1,Win32,60.85316132
2.771535581,1.3807,2.93071161,2.3085,0,281,281,444,1,709_69c01dcde028a2a1a913f1a2a5026ae1748484f75c89217a040c6791_orig.jpg,1.432444,-0.01935732,original,keaz01,2022-06-14_12h06.06.244,ratings,2022.1.1,Win32,60.85316132
1.488764045,1.4872,1.535580524,8.2432,0,282,282,590,1,1228_557412d34d6a70b7c5d222e030aa485b351a4574e8ba1a3112d1d13d_edges.jpg,2.137444,0.703464,edges,keaz01,2022-06-14_12h06.06.244,ratings,2022.1.1,Win32,60.85316132
1.338951311,2.1298,0.468164794,3.2201,0,283,283,436,1,694_f80f33613b268beffd6c044537cf3b44a84683d6e889bc37b8e9c34b_circblurint.jpg,-0.3785616,3.34728,circularblurringint,keaz01,2022-06-14_12h06.06.244,ratings,2022.1.1,Win32,60.85316132
3.024344569,1.2879,2.837078652,2.1262,0,284,284,67,1,172_c641c6c56ca6b594b773084e1363c852abdb65f988d7ff802ee503f2_bw.jpg,0.379572,0.01725328,blackwhite,keaz01,2022-06-14_12h06.06.244,ratings,2022.1.1,Win32,60.85316132
2.265917603,2.9953,1.535580524,4.3095,0,285,285,509,1,855_66d893451dfd1e7615132071c6c8a82b02dc2b37781cd89400883b26_circblurext.jpg,2.69484,0.2143624,circularblurringext,keaz01,2022-06-14_12h06.06.244,ratings,2022.1.1,Win32,60.85316132
2.537453184,3.5098,1.38576779,8.564,0,286,286,316,1,459_46e25de472bb056cb470716d30937415f7344bfc4354d6eb710d8c9f_circblurint.jpg,0.03174604,0.0,circularblurringint,keaz01,2022-06-14_12h06.06.244,ratings,2022.1.1,Win32,60.85316132
2.209737828,5.6549,1.104868914,6.4947,0,287,287,450,1,716_2ab64478147184c4df720a52cf621875addc9007cb2967e4a9a88909_orig.jpg,2.428484,0.0,original,keaz01,2022-06-14_12h06.06.244,ratings,2022.1.1,Win32,60.85316132
2.808988764,1.5705,2.078651685,2.7065,0,288,288,2,1,13_771f4fcf0a212d25d6a78565e7f34cc5ddd823e7afbdc77ef063326e_edges.jpg,2.190476,0.0,edges,keaz01,2022-06-14_12h06.06.244,ratings,2022.1.1,Win32,60.85316132
2.883895131,1.958,2.247191011,2.9202,0,289,289,458,1,720_483c541c48959a597fcf44320941afaf8b7695105f90d65b5f6b30f2_edges.jpg,2.158732,-0.2539684,edges,keaz01,2022-06-14_12h06.06.244,ratings,2022.1.1,Win32,60.85316132
1.479400749,2.7801,1.039325843,3.6919,0,290,290,197,1,379_eeaa6d9bf5a4ef205dc48bc505cf3a7f24ea86e99af9b371e03602a7_circblurext.jpg,-0.3926308,2.88936,circularblurringext,keaz01,2022-06-14_12h06.06.244,ratings,2022.1.1,Win32,60.85316132
0.74906367,3.5928,0.767790262,4.6478,0,291,291,193,1,379_eeaa6d9bf5a4ef205dc48bc505cf3a7f24ea86e99af9b371e03602a7_bw.jpg,-0.3926308,2.88936,blackwhite,keaz01,2022-06-14_12h06.06.244,ratings,2022.1.1,Win32,60.85316132
2.687265918,1.9816,2.743445693,3.1654,0,292,292,595,1,1239_cee00457f4cfb76a407b12fd5ad714d440a4614c1e5467ee16caf618_bw.jpg,-0.03174604,0.190476,blackwhite,keaz01,2022-06-14_12h06.06.244,ratings,2022.1.1,Win32,60.85316132
0.187265918,1.8551,0.037453184,2.8072,0,293,293,165,1,361_b5541309527dc3c2422f45a95ebb0ed32005e6fe10d0489a1ff1fbdc_blur.jpg,-3.987612,-0.2516452,blurring,keaz01,2022-06-14_12h06.06.244,ratings,2022.1.1,Win32,60.85316132
0.533707865,4.6801,0.496254682,6.0561,0,294,294,100,1,267_792043debad81ce271cec5b3c3bd9d264efc13f362bec9c7a3f72fe7_circblurint.jpg,1.980616,0.2107036,circularblurringint,keaz01,2022-06-14_12h06.06.244,ratings,2022.1.1,Win32,60.85316132
1.900749064,2.7203,1.43258427,3.7409,0,295,295,558,1,1022_cf035e583d41a856836f8b0ae314ecbe79dffd9e40ef6a08cc26028f_orig.jpg,-0.2516452,3.05846,original,keaz01,2022-06-14_12h06.06.244,ratings,2022.1.1,Win32,60.85316132
1.769662921,1.7242,1.376404494,2.8707,0,296,296,92,1,258_d26019382777d2159a974a7654923e71598135ce2cd710cea1f92865_edges.jpg,3.497684,-0.61104,edges,keaz01,2022-06-14_12h06.06.244,ratings,2022.1.1,Win32,60.85316132
2.97752809,1.3705,2.602996255,3.4894,0,297,297,568,1,1037_e2eb929a6de79a63ce6cfe5321fcb74a203b134e4094932d90b01d99_circblurint.jpg,2.651956,0.0,circularblurringint,keaz01,2022-06-14_12h06.06.244,ratings,2022.1.1,Win32,60.85316132
-0.393258427,2.63,0.149812734,3.9034,0,298,298,58,1,137_0e6a04243c0a42a5e2528a2d181255ca2a4b7bd6e7978c5c2059c69f_circblurint.jpg,-0.95238,2.095236,circularblurringint,keaz01,2022-06-14_12h06.06.244,ratings,2022.1.1,Win32,60.85316132
1.741573034,2.0625,1.470037453,3.1904,0,299,299,149,1,354_e46c3ec6fb00773f64f2bcd212385f253c389808fe724b7cf8611051_circblurext.jpg,2.018292,0.0,circularblurringext,keaz01,2022-06-14_12h06.06.244,ratings,2022.1.1,Win32,60.85316132
2.088014981,2.1541,1.619850187,3.1883,0,300,300,267,1,431_ab5a1dbbe9292ac7f74e276cdabcd372e2c1f852ff34bf7cc6646ef8_blur.jpg,3.102584,0.354334,blurring,keaz01,2022-06-14_12h06.06.244,ratings,2022.1.1,Win32,60.85316132
2.893258427,1.4721,2.902621723,2.4744,0,301,301,144,1,354_e46c3ec6fb00773f64f2bcd212385f253c389808fe724b7cf8611051_orig.jpg,2.018292,0.0,original,keaz01,2022-06-14_12h06.06.244,ratings,2022.1.1,Win32,60.85316132
1.601123596,1.696,1.029962547,2.5535,0,302,302,140,1,353_44e285740cb41818482ac93fc5fbd72c18029444a1d7506c9fc053e7_edges.jpg,-3.232676,-0.87108,edges,keaz01,2022-06-14_12h06.06.244,ratings,2022.1.1,Win32,60.85316132
1.657303371,4.2367,0.674157303,5.1639,0,303,303,324,1,468_8b69b13120daebadd8a4a3166e1419f2404395cba231307a4efa9fde_orig.jpg,2.031744,0.2539684,original,keaz01,2022-06-14_12h06.06.244,ratings,2022.1.1,Win32,60.85316132
2.322097378,3.1293,1.507490637,8.6383,0,304,304,60,1,156_08e8cf8f04630e9213e610580de73f51572d1d589878648700bae4dc_orig.jpg,2.222224,0.0,original,keaz01,2022-06-14_12h06.06.244,ratings,2022.1.1,Win32,60.85316132
-2.144194757,3.1692,-2.958801498,5.0204,0,305,305,354,1,500_3b520c7f352afa1a9f8c07e56cc0588cdc04d25ff6e7b602b5e280cb_orig.jpg,-0.8328,3.11766,original,keaz01,2022-06-14_12h06.06.244,ratings,2022.1.1,Win32,60.85316132
1.27340824,1.9428,0.617977528,8.6225,0,306,306,433,1,694_f80f33613b268beffd6c044537cf3b44a84683d6e889bc37b8e9c34b_bw.jpg,-0.3785616,3.34728,blackwhite,keaz01,2022-06-14_12h06.06.244,ratings,2022.1.1,Win32,60.85316132
0.187265918,9.2616,3.014981273,7.228,0,307,307,312,1,459_46e25de472bb056cb470716d30937415f7344bfc4354d6eb710d8c9f_orig.jpg,0.03174604,0.0,original,keaz01,2022-06-14_12h06.06.244,ratings,2022.1.1,Win32,60.85316132
2.088014981,1.487,2.331460674,2.5752,0,308,308,550,1,1010_06d15f44b979c086561137000ec070ba4cd479856f92840a7850b2bf_circblurint.jpg,0.189786,-0.189786,circularblurringint,keaz01,2022-06-14_12h06.06.244,ratings,2022.1.1,Win32,60.85316132
2.509363296,2.5202,1.619850187,5.3377,0,309,309,264,1,431_ab5a1dbbe9292ac7f74e276cdabcd372e2c1f852ff34bf7cc6646ef8_orig.jpg,3.102584,0.354334,original,keaz01,2022-06-14_12h06.06.244,ratings,2022.1.1,Win32,60.85316132
2.986891386,2.2427,2.837078652,3.7304,0,310,310,288,1,442_7449d79dae5d652af9b2429872cabdef938646ba024db2f431b3b28d_orig.jpg,1.619048,0.126984,original,keaz01,2022-06-14_12h06.06.244,ratings,2022.1.1,Win32,60.85316132
-3.904494382,1.6708,-3.202247191,3.2605,0,311,311,495,1,824_b1d91cc824ce0d3d383d3147da88d3d6dbaf6be918bab79e3ec8f501_blur.jpg,-3.645176,-1.432784,blurring,keaz01,2022-06-14_12h06.06.244,ratings,2022.1.1,Win32,60.85316132
-0.458801498,4.0137,-0.449438202,4.9657,0,312,312,23,1,48_2cc936b2483ab2944c9158e163342b874ef6c1492fd8fca08c0e096e_circblurext.jpg,-1.264224,-0.779604,circularblurringext,keaz01,2022-06-14_12h06.06.244,ratings,2022.1.1,Win32,60.85316132
1.245318352,1.4567,0.655430712,2.4035,0,313,313,544,1,1005_b980c0747d20935bc63cc27a9e05ce2ff5bae98f859872ec48edd7f5_circblurint.jpg,3.428572,-0.476192,circularblurringint,keaz01,2022-06-14_12h06.06.244,ratings,2022.1.1,Win32,60.85316132
-0.252808989,2.7487,-0.552434457,3.9487,0,314,314,487,1,818_877aae033c31e3bbca4486321a5307f87cf53c576c546462d3daf194_bw.jpg,-1.277584,0.619436,blackwhite,keaz01,2022-06-14_12h06.06.244,ratings,2022.1.1,Win32,60.85316132
0.945692884,6.8953,-0.739700375,14.0793,0,315,315,131,1,349_18d92ef5c21ca70a3dd237aad251594e1688bbe01d8cff37b89c46b8_circblurext.jpg,-2.74874,-1.258228,circularblurringext,keaz01,2022-06-14_12h06.06.244,ratings,2022.1.1,Win32,60.85316132
2.762172285,1.4224,2.780898876,2.3425,0,316,316,283,1,440_dc6413e2b65369ee2587f4d85621742fe4ca87392d0a8ad2ea7d94e3_bw.jpg,-3.016216,1.69404,blackwhite,keaz01,2022-06-14_12h06.06.244,ratings,2022.1.1,Win32,60.85316132
2.687265918,1.3438,2.827715356,2.3436,0,317,317,40,1,82_43f4d5aec7c2e5bd495473f6708a0f2d47c9fe34e1fe9436646cb036_circblurint.jpg,2.022756,0.505688,circularblurringint,keaz01,2022-06-14_12h06.06.244,ratings,2022.1.1,Win32,60.85316132
1.685393258,1.3707,1.647940075,2.6664,0,318,318,474,1,748_e519892faa7c772a0afaf9eeff36cf0e411574027ab3d9aa4947a048_orig.jpg,-1.813112,3.307432,original,keaz01,2022-06-14_12h06.06.244,ratings,2022.1.1,Win32,60.85316132
1.38576779,1.4226,1.797752809,2.2702,0,319,319,304,1,453_54f106fd1d4b65fa4aa347407127fc30d49f791e81aee3a0bbe44489_circblurint.jpg,2.222224,0.0,circularblurringint,keaz01,2022-06-14_12h06.06.244,ratings,2022.1.1,Win32,60.85316132
1.395131086,3.2724,1.479400749,4.0965,0,320,320,432,1,694_f80f33613b268beffd6c044537cf3b44a84683d6e889bc37b8e9c34b_orig.jpg,-0.3785616,3.34728,original,keaz01,2022-06-14_12h06.06.244,ratings,2022.1.1,Win32,60.85316132
1.882022472,1.4328,1.470037453,2.4726,0,321,321,227,1,403_57ac47f43882fc031a6067b1a388c0b2cbe8708dcbd2ff1019932eff_circblurext.jpg,-3.333332,-1.396824,circularblurringext,keaz01,2022-06-14_12h06.06.244,ratings,2022.1.1,Win32,60.85316132
1.788389513,1.5702,1.685393258,2.7037,0,322,322,301,1,453_54f106fd1d4b65fa4aa347407127fc30d49f791e81aee3a0bbe44489_bw.jpg,2.222224,0.0,blackwhite,keaz01,2022-06-14_12h06.06.244,ratings,2022.1.1,Win32,60.85316132
-0.074906367,2.3706,0.374531835,3.2904,0,323,323,393,1,663_aaf52107fe3a86392530d88b34e86f9d2b6820714cad98d1e3c2cb67_blur.jpg,2.58766,0.0918696,blurring,keaz01,2022-06-14_12h06.06.244,ratings,2022.1.1,Win32,60.85316132
1.001872659,1.6707,1.058052434,2.9411,0,324,324,437,1,694_f80f33613b268beffd6c044537cf3b44a84683d6e889bc37b8e9c34b_circblurext.jpg,-0.3785616,3.34728,circularblurringext,keaz01,2022-06-14_12h06.06.244,ratings,2022.1.1,Win32,60.85316132
0.009363296,1.5087,-0.140449438,2.7645,0,325,325,255,1,416_5eb54976bb41ce2a6d129ef985f792e716f010fb9b69b15f50f5d2db_blur.jpg,-2.58766,2.602972,blurring,keaz01,2022-06-14_12h06.06.244,ratings,2022.1.1,Win32,60.85316132
-0.140449438,3.3127,-0.065543071,4.1608,0,326,326,248,1,414_0187bdf7007109b487865b6a9d388997a6817acf052a6a7cdd5b39d9_edges.jpg,-2.786708,-1.133056,edges,keaz01,2022-06-14_12h06.06.244,ratings,2022.1.1,Win32,60.85316132
2.078651685,1.7089,1.956928839,2.5487,0,327,327,430,1,694_7a14b8ab7c564dcb0f628c4de7f6cb54e4c5f6601f774bf167641c37_circblurint.jpg,1.819588,0.116144,circularblurringint,keaz01,2022-06-14_12h06.06.244,ratings,2022.1.1,Win32,60.85316132
1.338951311,3.9642,1.479400749,5.0942,0,328,328,578,1,1061_665178b9cb0bc869cc2e2b68def4838db04e66f9531098fb75875a09_edges.jpg,0.3492064,-0.3174604,edges,keaz01,2022-06-14_12h06.06.244,ratings,2022.1.1,Win32,60.85316132
0.63670412,1.8607,0.552434457,2.6703,0,329,329,77,1,236_f645730e1eb06155418c9a571329cc7fa320654fcaaedf1048b5cc11_circblurext.jpg,2.253968,0.0,circularblurringext,keaz01,2022-06-14_12h06.06.244,ratings,2022.1.1,Win32,60.85316132
0.561797753,1.341,0.983146067,2.277,0,330,330,525,1,877_cab3efed0c9ff4552037df6c1ea4ea9713f915c94592a14dbf2799da_blur.jpg,3.174604,0.3174604,blurring,keaz01,2022-06-14_12h06.06.244,ratings,2022.1.1,Win32,60.85316132
-0.037453184,1.4202,0.243445693,2.4032,0,331,331,299,1,449_9c1e990a3480e5b51430fe76b0188e69ba2468fd6a866b88b2d0dd75_circblurext.jpg,0.095238,0.03174604,circularblurringext,keaz01,2022-06-14_12h06.06.244,ratings,2022.1.1,Win32,60.85316132
1.338951311,1.6792,1.310861423,2.6391,0,332,332,62,1,156_08e8cf8f04630e9213e610580de73f51572d1d589878648700bae4dc_edges.jpg,2.222224,0.0,edges,keaz01,2022-06-14_12h06.06.244,ratings,2022.1.1,Win32,60.85316132
2.481273408,2.0232,2.743445693,3.7545,0,333,333,230,1,407_578d31d32e806706dde2563213f130b90e621abfed0e47ecabd85d27_edges.jpg,3.5873,-0.444444,edges,keaz01,2022-06-14_12h06.06.244,ratings,2022.1.1,Win32,60.85316132
1.938202247,1.5871,2.481273408,2.5055,0,334,334,224,1,403_57ac47f43882fc031a6067b1a388c0b2cbe8708dcbd2ff1019932eff_edges.jpg,-3.333332,-1.396824,edges,keaz01,2022-06-14_12h06.06.244,ratings,2022.1.1,Win32,60.85316132
1.38576779,2.3958,0.720973783,6.1873,0,335,335,467,1,736_bb85db1bcda8eb34299aa5791ac65a0a7c343266eb2d6e6e328ec0e1_circblurext.jpg,3.650792,-0.03174604,circularblurringext,keaz01,2022-06-14_12h06.06.244,ratings,2022.1.1,Win32,60.85316132
2.940074906,1.8395,3.052434457,2.7594,0,336,336,115,1,332_4d584229bdae2e1782f77f0e953e528f13c3dfa79b4b94736c0310fa_bw.jpg,3.157348,0.483092,blackwhite,keaz01,2022-06-14_12h06.06.244,ratings,2022.1.1,Win32,60.85316132
-1.788389513,2.0035,-2.284644195,3.737,0,337,337,274,1,434_ba36d91204d7e578001f6a545d7501e65d209554def5a3c8b7583825_circblurint.jpg,-3.523808,1.428572,circularblurringint,keaz01,2022-06-14_12h06.06.244,ratings,2022.1.1,Win32,60.85316132
3.876404494,16.3375,3.913857678,18.3454,0,338,338,517,1,860_05c4e22518a30d3d2add458a8fc6488f87b9b02dd8e385ded939f025_bw.jpg,1.955092,0.3097172,blackwhite,keaz01,2022-06-14_12h06.06.244,ratings,2022.1.1,Win32,60.85316132
0.280898876,1.9769,0.355805243,2.7129,0,339,339,545,1,1005_b980c0747d20935bc63cc27a9e05ce2ff5bae98f859872ec48edd7f5_circblurext.jpg,3.428572,-0.476192,circularblurringext,keaz01,2022-06-14_12h06.06.244,ratings,2022.1.1,Win32,60.85316132
2.855805243,2.8043,1.198501873,4.2221,0,340,340,409,1,687_e3b018945792a574962235c88c553b7c318c75eec2596478e8a7b877_bw.jpg,3.63918,-0.42586,blackwhite,keaz01,2022-06-14_12h06.06.244,ratings,2022.1.1,Win32,60.85316132
3.202247191,17.4138,2.528089888,15.9035,0,341,341,76,1,236_f645730e1eb06155418c9a571329cc7fa320654fcaaedf1048b5cc11_circblurint.jpg,2.253968,0.0,circularblurringint,keaz01,2022-06-14_12h06.06.244,ratings,2022.1.1,Win32,60.85316132
0.43071161,1.6452,1.076779026,2.4294,0,342,342,483,1,759_95e1c46ed9a337414d5c8eada8fa8b9632e18751f5ce6ed587806e91_blur.jpg,2.126984,0.0,blurring,keaz01,2022-06-14_12h06.06.244,ratings,2022.1.1,Win32,60.85316132
1.395131086,3.3706,-0.337078652,5.2818,0,343,343,43,1,92_5d20d78a8e57e628c6930676473a4e0a485e715841efd6286c660020_bw.jpg,2.126984,0.0,blackwhite,keaz01,2022-06-14_12h06.06.244,ratings,2022.1.1,Win32,60.85316132
1.11423221,5.0374,0.421348315,2.7092,0,344,344,485,1,759_95e1c46ed9a337414d5c8eada8fa8b9632e18751f5ce6ed587806e91_circblurext.jpg,2.126984,0.0,circularblurringext,keaz01,2022-06-14_12h06.06.244,ratings,2022.1.1,Win32,60.85316132
-0.496254682,1.8308,-0.299625468,2.5824,0,345,345,376,1,620_9674719009d75dcfeaed7f15932c43e1fd1af5e25d47b8aadd61efe2_circblurint.jpg,-0.561364,1.142084,circularblurringint,keaz01,2022-06-14_12h06.06.244,ratings,2022.1.1,Win32,60.85316132
-0.290262172,1.7439,-0.252808989,2.6958,0,346,346,599,1,1239_cee00457f4cfb76a407b12fd5ad714d440a4614c1e5467ee16caf618_circblurext.jpg,-0.03174604,0.190476,circularblurringext,keaz01,2022-06-14_12h06.06.244,ratings,2022.1.1,Win32,60.85316132
-1.413857678,1.6445,-1.685393258,2.6284,0,347,347,396,1,683_a004ad18331da968da5debdd15e1447dd7748750af0bc6c57b844200_orig.jpg,-2.91956,2.466524,original,keaz01,2022-06-14_12h06.06.244,ratings,2022.1.1,Win32,60.85316132
-3.951310861,1.4721,-3.305243446,2.9281,0,348,348,539,1,986_a77edb21e78bc3a6aa7406517824596b3496ad6c657b6befb84cf370_circblurext.jpg,-3.906316,-0.60496,circularblurringext,keaz01,2022-06-14_12h06.06.244,ratings,2022.1.1,Win32,60.85316132
-2.734082397,1.6306,-3.061797753,2.6305,0,349,349,273,1,434_ba36d91204d7e578001f6a545d7501e65d209554def5a3c8b7583825_blur.jpg,-3.523808,1.428572,blurring,keaz01,2022-06-14_12h06.06.244,ratings,2022.1.1,Win32,60.85316132
-0.065543071,1.8137,-0.084269663,4.1199,0,350,350,302,1,453_54f106fd1d4b65fa4aa347407127fc30d49f791e81aee3a0bbe44489_edges.jpg,2.222224,0.0,edges,keaz01,2022-06-14_12h06.06.244,ratings,2022.1.1,Win32,60.85316132
-0.730337079,2.2872,-0.758426966,3.1437,0,351,351,597,1,1239_cee00457f4cfb76a407b12fd5ad714d440a4614c1e5467ee16caf618_blur.jpg,-0.03174604,0.190476,blurring,keaz01,2022-06-14_12h06.06.244,ratings,2022.1.1,Win32,60.85316132
4,20.4786,3.923220974,21.8944,0,352,352,457,1,720_483c541c48959a597fcf44320941afaf8b7695105f90d65b5f6b30f2_bw.jpg,2.158732,-0.2539684,blackwhite,keaz01,2022-06-14_12h06.06.244,ratings,2022.1.1,Win32,60.85316132
-1.142322097,1.7596,-2.059925094,2.7118,0,353,353,359,1,500_3b520c7f352afa1a9f8c07e56cc0588cdc04d25ff6e7b602b5e280cb_circblurext.jpg,-0.8328,3.11766,circularblurringext,keaz01,2022-06-14_12h06.06.244,ratings,2022.1.1,Win32,60.85316132
1.872659176,1.5962,1.70411985,2.6122,0,354,354,463,1,736_bb85db1bcda8eb34299aa5791ac65a0a7c343266eb2d6e6e328ec0e1_bw.jpg,3.650792,-0.03174604,blackwhite,keaz01,2022-06-14_12h06.06.244,ratings,2022.1.1,Win32,60.85316132
1.769662921,2.7121,2.02247191,3.5063,0,355,355,426,1,694_7a14b8ab7c564dcb0f628c4de7f6cb54e4c5f6601f774bf167641c37_orig.jpg,1.819588,0.116144,original,keaz01,2022-06-14_12h06.06.244,ratings,2022.1.1,Win32,60.85316132
-1.011235955,1.7303,-0.280898876,2.6199,0,356,356,141,1,353_44e285740cb41818482ac93fc5fbd72c18029444a1d7506c9fc053e7_blur.jpg,-3.232676,-0.87108,blurring,keaz01,2022-06-14_12h06.06.244,ratings,2022.1.1,Win32,60.85316132
0.580524345,15.021,1.38576779,15.9972,0,357,357,35,1,60_ad52063167538de24f94d7dfd04808cb94cf8f426c40871d2f126505_circblurext.jpg,2.158732,0.0,circularblurringext,keaz01,2022-06-14_12h06.06.244,ratings,2022.1.1,Win32,60.85316132
-1.376404494,1.4581,-0.252808989,2.3058,0,358,358,270,1,434_ba36d91204d7e578001f6a545d7501e65d209554def5a3c8b7583825_orig.jpg,-3.523808,1.428572,original,keaz01,2022-06-14_12h06.06.244,ratings,2022.1.1,Win32,60.85316132
-3.895131086,7.201,-3.099250936,8.2984,0,359,359,330,1,482_a1cd28915c5044c018195ab0fff10dcc95e385246b045a7cd4463ff7_orig.jpg,-3.361852,-1.555612,original,keaz01,2022-06-14_12h06.06.244,ratings,2022.1.1,Win32,60.85316132
-2.284644195,2.1207,-1.404494382,3.0265,0,360,360,321,1,460_e06b3af7ff2f2bfb5f9b6e3d5dc25b9aaa40b84823fac8fd934621bd_blur.jpg,-3.430992,-1.607468,blurring,keaz01,2022-06-14_12h06.06.244,ratings,2022.1.1,Win32,60.85316132
-0.599250936,1.9036,-0.917602996,2.9982,0,361,361,403,1,686_6745b57686ad5d1bd6cf3e7ed5bc0243a154f8939e88e30321dfcfdb_bw.jpg,-1.523808,3.650792,blackwhite,keaz01,2022-06-14_12h06.06.244,ratings,2022.1.1,Win32,60.85316132
-0.009363296,1.6766,1.001872659,2.9407,0,362,362,353,1,498_305b74cdc4784d9d25e72724302e5402def70177ea31ae7e25fab66b_circblurext.jpg,3.04762,-0.444444,circularblurringext,keaz01,2022-06-14_12h06.06.244,ratings,2022.1.1,Win32,60.85316132
2.968164794,1.7564,1.994382022,3.0284,0,363,363,52,1,112_b6a4ce721c2e42943d7d8b168751d74cd2f372b1cd4fed5a4404faec_circblurint.jpg,2.107036,0.505688,circularblurringint,keaz01,2022-06-14_12h06.06.244,ratings,2022.1.1,Win32,60.85316132
0.880149813,1.337,1.554307116,2.245,0,364,364,527,1,877_cab3efed0c9ff4552037df6c1ea4ea9713f915c94592a14dbf2799da_circblurext.jpg,3.174604,0.3174604,circularblurringext,keaz01,2022-06-14_12h06.06.244,ratings,2022.1.1,Win32,60.85316132
0.47752809,1.5401,0.74906367,2.4601,0,365,365,129,1,349_18d92ef5c21ca70a3dd237aad251594e1688bbe01d8cff37b89c46b8_blur.jpg,-2.74874,-1.258228,blurring,keaz01,2022-06-14_12h06.06.244,ratings,2022.1.1,Win32,60.85316132
3.08988764,1.522,3.164794007,3.1941,0,366,366,449,1,709_69c01dcde028a2a1a913f1a2a5026ae1748484f75c89217a040c6791_circblurext.jpg,1.432444,-0.01935732,circularblurringext,keaz01,2022-06-14_12h06.06.244,ratings,2022.1.1,Win32,60.85316132
1.797752809,1.6486,1.413857678,2.5045,0,367,367,254,1,416_5eb54976bb41ce2a6d129ef985f792e716f010fb9b69b15f50f5d2db_edges.jpg,-2.58766,2.602972,edges,keaz01,2022-06-14_12h06.06.244,ratings,2022.1.1,Win32,60.85316132
-2.228464419,1.8778,-2.34082397,2.8935,0,368,368,245,1,411_adfd0d5782129756321ff671d0cfb712528504c66c863df11aabd1e7_circblurext.jpg,-3.392332,-1.369576,circularblurringext,keaz01,2022-06-14_12h06.06.244,ratings,2022.1.1,Win32,60.85316132
0.608614232,2.5273,-0.009363296,3.4323,0,369,369,39,1,82_43f4d5aec7c2e5bd495473f6708a0f2d47c9fe34e1fe9436646cb036_blur.jpg,2.022756,0.505688,blurring,keaz01,2022-06-14_12h06.06.244,ratings,2022.1.1,Win32,60.85316132
0.627340824,2.0273,0.112359551,2.9152,0,370,370,515,1,858_2f6539ee36aba48c38dc716d4f7c3ae93367d6ddf23ab41745d4172c_circblurext.jpg,0.0623832,0.176752,circularblurringext,keaz01,2022-06-14_12h06.06.244,ratings,2022.1.1,Win32,60.85316132
-2.041198502,2.0277,-1.956928839,2.8917,0,371,371,598,1,1239_cee00457f4cfb76a407b12fd5ad714d440a4614c1e5467ee16caf618_circblurint.jpg,-0.03174604,0.190476,circularblurringint,keaz01,2022-06-14_12h06.06.244,ratings,2022.1.1,Win32,60.85316132
1.329588015,1.844,1.058052434,2.8536,0,372,372,268,1,431_ab5a1dbbe9292ac7f74e276cdabcd372e2c1f852ff34bf7cc6646ef8_circblurint.jpg,3.102584,0.354334,circularblurringint,keaz01,2022-06-14_12h06.06.244,ratings,2022.1.1,Win32,60.85316132
0.870786517,1.5151,-0.112359551,2.6716,0,373,373,152,1,355_00a76f54934d36566dd0e7b091b8aa6a56d8e6b32d349aa578a10b45_edges.jpg,2.910052,0.3439152,edges,keaz01,2022-06-14_12h06.06.244,ratings,2022.1.1,Win32,60.85316132
0.973782772,1.7915,-0.63670412,6.7698,0,374,374,510,1,858_2f6539ee36aba48c38dc716d4f7c3ae93367d6ddf23ab41745d4172c_orig.jpg,0.0623832,0.176752,original,keaz01,2022-06-14_12h06.06.244,ratings,2022.1.1,Win32,60.85316132
1.095505618,2.0541,0.224719101,3.011,0,375,375,380,1,640_0ddb4981a5f5842ed5b4f7ef941be53779189df5e718b1fc5475ad80_edges.jpg,2.571428,-1.873016,edges,keaz01,2022-06-14_12h06.06.244,ratings,2022.1.1,Win32,60.85316132
-3.88576779,2.7693,-3.164794007,3.7611,0,376,376,132,1,349_8809a67686d34844c915d7700e2ea72ad1c02ae232ae0d3cc0e458d4_orig.jpg,-3.619048,-0.2857144,original,keaz01,2022-06-14_12h06.06.244,ratings,2022.1.1,Win32,60.85316132
3.923220974,1.7032,3.857677903,2.9738,0,377,377,456,1,720_483c541c48959a597fcf44320941afaf8b7695105f90d65b5f6b30f2_orig.jpg,2.158732,-0.2539684,original,keaz01,2022-06-14_12h06.06.244,ratings,2022.1.1,Win32,60.85316132
0.355805243,1.6373,0.205992509,2.5413,0,378,378,260,1,416_8a1f874e0057d67a4e6955865ba88b2d8ce2c8b4469589307687a723_edges.jpg,-1.753336,3.088264,edges,keaz01,2022-06-14_12h06.06.244,ratings,2022.1.1,Win32,60.85316132
2.415730337,2.3378,2.02247191,3.7368,0,379,379,516,1,860_05c4e22518a30d3d2add458a8fc6488f87b9b02dd8e385ded939f025_orig.jpg,1.955092,0.3097172,original,keaz01,2022-06-14_12h06.06.244,ratings,2022.1.1,Win32,60.85316132
0.674157303,1.6138,1.329588015,2.4619,0,380,380,262,1,416_8a1f874e0057d67a4e6955865ba88b2d8ce2c8b4469589307687a723_circblurint.jpg,-1.753336,3.088264,circularblurringint,keaz01,2022-06-14_12h06.06.244,ratings,2022.1.1,Win32,60.85316132
-0.973782772,1.9257,-0.121722846,3.1414,0,381,381,83,1,242_85283f6935a89812ab229dcad9ba184529c9242ac3106d768ecf3ab3_circblurext.jpg,2.14918,-0.2949852,circularblurringext,keaz01,2022-06-14_12h06.06.244,ratings,2022.1.1,Win32,60.85316132
1.573033708,3.2627,1.151685393,4.0869,0,382,382,440,1,700_59cb565f134f1afd066d7b6d936c6511b7cb76de0e9cbb5ce15124ad_edges.jpg,0.0,0.0,edges,keaz01,2022-06-14_12h06.06.244,ratings,2022.1.1,Win32,60.85316132
0.861423221,1.2983,0.842696629,1.954,0,383,383,257,1,416_5eb54976bb41ce2a6d129ef985f792e716f010fb9b69b15f50f5d2db_circblurext.jpg,-2.58766,2.602972,circularblurringext,keaz01,2022-06-14_12h06.06.244,ratings,2022.1.1,Win32,60.85316132
1.11423221,4.7703,-0.196629213,5.6549,0,384,384,325,1,468_8b69b13120daebadd8a4a3166e1419f2404395cba231307a4efa9fde_bw.jpg,2.031744,0.2539684,blackwhite,keaz01,2022-06-14_12h06.06.244,ratings,2022.1.1,Win32,60.85316132
1.095505618,1.4205,0.43071161,2.1368,0,385,385,107,1,284_cdcbd54fc995081ac95c8b2c37a19cebb341f61a8eb268cee1623492_circblurext.jpg,-1.015872,2.095236,circularblurringext,keaz01,2022-06-14_12h06.06.244,ratings,2022.1.1,Win32,60.85316132
3.689138577,2.0802,3.595505618,3.0323,0,386,386,49,1,112_b6a4ce721c2e42943d7d8b168751d74cd2f372b1cd4fed5a4404faec_bw.jpg,2.107036,0.505688,blackwhite,keaz01,2022-06-14_12h06.06.244,ratings,2022.1.1,Win32,60.85316132
3.923220974,3.1819,3.951310861,2.3033,0,387,387,181,1,369_98db62a1bdabfd1bc551180da6658005b461585cd21614633cf76470_bw.jpg,2.190476,-0.03174604,blackwhite,keaz01,2022-06-14_12h06.06.244,ratings,2022.1.1,Win32,60.85316132
0.187265918,1.6734,0.102996255,2.4093,0,388,388,411,1,687_e3b018945792a574962235c88c553b7c318c75eec2596478e8a7b877_blur.jpg,3.63918,-0.42586,blurring,keaz01,2022-06-14_12h06.06.244,ratings,2022.1.1,Win32,60.85316132
0.205992509,1.387,-0.131086142,2.112,0,389,389,507,1,855_66d893451dfd1e7615132071c6c8a82b02dc2b37781cd89400883b26_blur.jpg,2.69484,0.2143624,blurring,keaz01,2022-06-14_12h06.06.244,ratings,2022.1.1,Win32,60.85316132
-1.235955056,2.2046,-1.423220974,2.9764,0,390,390,372,1,620_9674719009d75dcfeaed7f15932c43e1fd1af5e25d47b8aadd61efe2_orig.jpg,-0.561364,1.142084,original,keaz01,2022-06-14_12h06.06.244,ratings,2022.1.1,Win32,60.85316132
-1.413857678,1.2784,-1.058052434,1.9821,0,391,391,551,1,1010_06d15f44b979c086561137000ec070ba4cd479856f92840a7850b2bf_circblurext.jpg,0.189786,-0.189786,circularblurringext,keaz01,2022-06-14_12h06.06.244,ratings,2022.1.1,Win32,60.85316132
1.011235955,1.2976,0.674157303,2.0095,0,392,392,170,1,365_45a719cabbc9aa308c4fcb30d529489c6966ac4073874af84f665c61_edges.jpg,2.507936,-1.968252,edges,keaz01,2022-06-14_12h06.06.244,ratings,2022.1.1,Win32,60.85316132
2.65917603,2.8523,2.18164794,3.9529,0,393,393,10,1,28_6318543b74eeb646a1735477ebc023fdc9ac3849bc0db1957c272a26_circblurint.jpg,2.811244,-0.74584,circularblurringint,keaz01,2022-06-14_12h06.06.244,ratings,2022.1.1,Win32,60.85316132
1.27340824,9.6061,2.209737828,7.2777,0,394,394,313,1,459_46e25de472bb056cb470716d30937415f7344bfc4354d6eb710d8c9f_bw.jpg,0.03174604,0.0,blackwhite,keaz01,2022-06-14_12h06.06.244,ratings,2022.1.1,Win32,60.85316132
-0.945692884,2.9231,-1.423220974,3.843,0,395,395,323,1,460_e06b3af7ff2f2bfb5f9b6e3d5dc25b9aaa40b84823fac8fd934621bd_circblurext.jpg,-3.430992,-1.607468,circularblurringext,keaz01,2022-06-14_12h06.06.244,ratings,2022.1.1,Win32,60.85316132
2.752808989,2.0879,2.443820225,2.8557,0,396,396,30,1,60_ad52063167538de24f94d7dfd04808cb94cf8f426c40871d2f126505_orig.jpg,2.158732,0.0,original,keaz01,2022-06-14_12h06.06.244,ratings,2022.1.1,Win32,60.85316132
2.331460674,3.9899,2.031835206,4.8544,0,397,397,201,1,380_34772591c787182a37724027eac6948ebc9d4064f6a601d23b923b8e_blur.jpg,2.222224,-0.063492,blurring,keaz01,2022-06-14_12h06.06.244,ratings,2022.1.1,Win32,60.85316132
-0.327715356,3.1093,-0.580524345,3.9544,0,398,398,275,1,434_ba36d91204d7e578001f6a545d7501e65d209554def5a3c8b7583825_circblurext.jpg,-3.523808,1.428572,circularblurringext,keaz01,2022-06-14_12h06.06.244,ratings,2022.1.1,Win32,60.85316132
1.235955056,2.3288,0.917602996,3.3053,0,399,399,203,1,380_34772591c787182a37724027eac6948ebc9d4064f6a601d23b923b8e_circblurext.jpg,2.222224,-0.063492,circularblurringext,keaz01,2022-06-14_12h06.06.244,ratings,2022.1.1,Win32,60.85316132
-0.608614232,1.6035,-0.973782772,2.5129,0,400,400,204,1,381_5935a9f9796adce2f1539af6c75bcdc0c80d847a2ce9b77cf59b7672_orig.jpg,-1.327432,-0.442476,original,keaz01,2022-06-14_12h06.06.244,ratings,2022.1.1,Win32,60.85316132
-3.829588015,1.6049,-2.883895131,2.47,0,401,401,163,1,361_b5541309527dc3c2422f45a95ebb0ed32005e6fe10d0489a1ff1fbdc_bw.jpg,-3.987612,-0.2516452,blackwhite,keaz01,2022-06-14_12h06.06.244,ratings,2022.1.1,Win32,60.85316132
-1.170411985,2.1318,-1.329588015,3.092,0,402,402,158,1,358_157f8ac929713531a15b1ecf115e7b659cb90e83d675251e368d165f_edges.jpg,-3.777776,-0.571428,edges,keaz01,2022-06-14_12h06.06.244,ratings,2022.1.1,Win32,60.85316132
0.674157303,1.6973,1.179775281,3.6213,0,403,403,217,1,396_208259ea431d47bb7f3946213eb099834eb119756ce304ad473d4d9f_bw.jpg,2.857144,-0.3809524,blackwhite,keaz01,2022-06-14_12h06.06.244,ratings,2022.1.1,Win32,60.85316132
-0.121722846,1.6397,-0.299625468,2.4955,0,404,404,238,1,410_9633c4ff6e8888fcfca59a60ca86e9606d3e0736500a254101bdf295_circblurint.jpg,-0.3677892,2.981028,circularblurringint,keaz01,2022-06-14_12h06.06.244,ratings,2022.1.1,Win32,60.85316132
3.941947566,1.6086,3.867041199,2.6485,0,405,405,48,1,112_b6a4ce721c2e42943d7d8b168751d74cd2f372b1cd4fed5a4404faec_orig.jpg,2.107036,0.505688,original,keaz01,2022-06-14_12h06.06.244,ratings,2022.1.1,Win32,60.85316132
-2.462546816,1.7558,-2.18164794,2.8277,0,406,406,243,1,411_adfd0d5782129756321ff671d0cfb712528504c66c863df11aabd1e7_blur.jpg,-3.392332,-1.369576,blurring,keaz01,2022-06-14_12h06.06.244,ratings,2022.1.1,Win32,60.85316132
-3.93258427,1.6375,-3.108614232,2.6116,0,407,407,250,1,414_0187bdf7007109b487865b6a9d388997a6817acf052a6a7cdd5b39d9_circblurint.jpg,-2.786708,-1.133056,circularblurringint,keaz01,2022-06-14_12h06.06.244,ratings,2022.1.1,Win32,60.85316132
-0.177902622,1.9536,0.196629213,3.02,0,408,408,147,1,354_e46c3ec6fb00773f64f2bcd212385f253c389808fe724b7cf8611051_blur.jpg,2.018292,0.0,blurring,keaz01,2022-06-14_12h06.06.244,ratings,2022.1.1,Win32,60.85316132
1.011235955,3.6998,0.852059925,4.8457,0,409,409,266,1,431_ab5a1dbbe9292ac7f74e276cdabcd372e2c1f852ff34bf7cc6646ef8_edges.jpg,3.102584,0.354334,edges,keaz01,2022-06-14_12h06.06.244,ratings,2022.1.1,Win32,60.85316132
0.870786517,1.4707,0.936329588,2.3563,0,410,410,352,1,498_305b74cdc4784d9d25e72724302e5402def70177ea31ae7e25fab66b_circblurint.jpg,3.04762,-0.444444,circularblurringint,keaz01,2022-06-14_12h06.06.244,ratings,2022.1.1,Win32,60.85316132
1.404494382,4.077,2.368913858,5.1091,0,411,411,103,1,284_cdcbd54fc995081ac95c8b2c37a19cebb341f61a8eb268cee1623492_bw.jpg,-1.015872,2.095236,blackwhite,keaz01,2022-06-14_12h06.06.244,ratings,2022.1.1,Win32,60.85316132
0.777153558,1.9326,1.516853933,2.8541,0,412,412,258,1,416_8a1f874e0057d67a4e6955865ba88b2d8ce2c8b4469589307687a723_orig.jpg,-1.753336,3.088264,original,keaz01,2022-06-14_12h06.06.244,ratings,2022.1.1,Win32,60.85316132
1.507490637,1.4706,1.460674157,2.4625,0,413,413,14,1,39_2fafccaa4dc69045a05845f59c6b3cd2edcf7e0e0c108b24e553afe0_edges.jpg,2.022756,0.463548,edges,keaz01,2022-06-14_12h06.06.244,ratings,2022.1.1,Win32,60.85316132
1.647940075,1.587,1.076779026,2.8628,0,414,414,560,1,1022_cf035e583d41a856836f8b0ae314ecbe79dffd9e40ef6a08cc26028f_edges.jpg,-0.2516452,3.05846,edges,keaz01,2022-06-14_12h06.06.244,ratings,2022.1.1,Win32,60.85316132
2.790262172,2.0236,2.790262172,2.9201,0,415,415,36,1,82_43f4d5aec7c2e5bd495473f6708a0f2d47c9fe34e1fe9436646cb036_orig.jpg,2.022756,0.505688,original,keaz01,2022-06-14_12h06.06.244,ratings,2022.1.1,Win32,60.85316132
0.262172285,1.6703,-0.43071161,2.5532,0,416,416,143,1,353_44e285740cb41818482ac93fc5fbd72c18029444a1d7506c9fc053e7_circblurext.jpg,-3.232676,-0.87108,circularblurringext,keaz01,2022-06-14_12h06.06.244,ratings,2022.1.1,Win32,60.85316132
-1.985018727,1.416,-2.237827715,2.3536,0,417,417,59,1,137_0e6a04243c0a42a5e2528a2d181255ca2a4b7bd6e7978c5c2059c69f_circblurext.jpg,-0.95238,2.095236,circularblurringext,keaz01,2022-06-14_12h06.06.244,ratings,2022.1.1,Win32,60.85316132
2.940074906,4.4272,2.677902622,5.3654,0,418,418,124,1,347_27f0e47c2722605b950ccf9fa900f78271e4c3c874064ab5dacac160_circblurint.jpg,1.838948,0.3097172,circularblurringint,keaz01,2022-06-14_12h06.06.244,ratings,2022.1.1,Win32,60.85316132
-0.187265918,1.7597,-0.767790262,2.5759,0,419,419,405,1,686_6745b57686ad5d1bd6cf3e7ed5bc0243a154f8939e88e30321dfcfdb_blur.jpg,-1.523808,3.650792,blurring,keaz01,2022-06-14_12h06.06.244,ratings,2022.1.1,Win32,60.85316132
1.338951311,1.6964,1.217228464,2.6965,0,420,420,216,1,396_208259ea431d47bb7f3946213eb099834eb119756ce304ad473d4d9f_orig.jpg,2.857144,-0.3809524,original,keaz01,2022-06-14_12h06.06.244,ratings,2022.1.1,Win32,60.85316132
1.395131086,1.9892,0.346441948,2.9569,0,421,421,390,1,663_aaf52107fe3a86392530d88b34e86f9d2b6820714cad98d1e3c2cb67_orig.jpg,2.58766,0.0918696,original,keaz01,2022-06-14_12h06.06.244,ratings,2022.1.1,Win32,60.85316132
2.921348315,4.6038,4,5.7939,0,422,422,289,1,442_7449d79dae5d652af9b2429872cabdef938646ba024db2f431b3b28d_bw.jpg,1.619048,0.126984,blackwhite,keaz01,2022-06-14_12h06.06.244,ratings,2022.1.1,Win32,60.85316132
2.041198502,1.255,1.975655431,2.6576,0,423,423,104,1,284_cdcbd54fc995081ac95c8b2c37a19cebb341f61a8eb268cee1623492_edges.jpg,-1.015872,2.095236,edges,keaz01,2022-06-14_12h06.06.244,ratings,2022.1.1,Win32,60.85316132
4,2.6035,3.913857678,4.5132,0,424,424,174,1,368_6507b94d7d0199f14efd3706db30c9c44b96085f84e9cc7792e3e0ae_orig.jpg,1.959544,0.400336,original,keaz01,2022-06-14_12h06.06.244,ratings,2022.1.1,Win32,60.85316132
-3.951310861,1.5414,-3.352059925,2.9974,0,425,425,160,1,358_157f8ac929713531a15b1ecf115e7b659cb90e83d675251e368d165f_circblurint.jpg,-3.777776,-0.571428,circularblurringint,keaz01,2022-06-14_12h06.06.244,ratings,2022.1.1,Win32,60.85316132
-0.58988764,1.7874,-0.627340824,2.6393,0,426,426,309,1,455_34a7d8167619d110206c369e3f7dce8a3f99db763a9d8e2b956501d3_blur.jpg,-2.526412,-0.3827896,blurring,keaz01,2022-06-14_12h06.06.244,ratings,2022.1.1,Win32,60.85316132
-1.470037453,2.2301,-1.423220974,3.1202,0,427,427,414,1,692_7d7eaf20e6de8956f0fca7500ace97a8599aa8b605a7d690cdb28724_orig.jpg,-2.063492,-1.26984,original,keaz01,2022-06-14_12h06.06.244,ratings,2022.1.1,Win32,60.85316132
0.271535581,1.6498,0.121722846,2.4099,0,428,428,81,1,242_85283f6935a89812ab229dcad9ba184529c9242ac3106d768ecf3ab3_blur.jpg,2.14918,-0.2949852,blurring,keaz01,2022-06-14_12h06.06.244,ratings,2022.1.1,Win32,60.85316132
0.15917603,1.3706,0.149812734,2.0371,0,429,429,479,1,748_e519892faa7c772a0afaf9eeff36cf0e411574027ab3d9aa4947a048_circblurext.jpg,-1.813112,3.307432,circularblurringext,keaz01,2022-06-14_12h06.06.244,ratings,2022.1.1,Win32,60.85316132
0.702247191,4.3579,0.440074906,5.1661,0,430,430,168,1,365_45a719cabbc9aa308c4fcb30d529489c6966ac4073874af84f665c61_orig.jpg,2.507936,-1.968252,original,keaz01,2022-06-14_12h06.06.244,ratings,2022.1.1,Win32,60.85316132
0.168539326,2.1238,0.327715356,3.092,0,431,431,311,1,455_34a7d8167619d110206c369e3f7dce8a3f99db763a9d8e2b956501d3_circblurext.jpg,-2.526412,-0.3827896,circularblurringext,keaz01,2022-06-14_12h06.06.244,ratings,2022.1.1,Win32,60.85316132
1.22659176,2.6769,1.900749064,4.0931,0,432,432,420,1,692_e3e3bf88684fbbcdb9849a4147f9e2fcd39b0f083554a829aca4e9fa_orig.jpg,-0.44522,3.135888,original,keaz01,2022-06-14_12h06.06.244,ratings,2022.1.1,Win32,60.85316132
-0.131086142,3.6539,-1.020599251,4.4926,0,433,433,401,1,683_a004ad18331da968da5debdd15e1447dd7748750af0bc6c57b844200_circblurext.jpg,-2.91956,2.466524,circularblurringext,keaz01,2022-06-14_12h06.06.244,ratings,2022.1.1,Win32,60.85316132
0.786516854,1.9079,0.617977528,2.5798,0,434,434,371,1,616_05a637f5281666f53d4e2ef69351485fc21d629b37ee2006b2076eb6_circblurext.jpg,-2.380952,-0.832364,circularblurringext,keaz01,2022-06-14_12h06.06.244,ratings,2022.1.1,Win32,60.85316132
2.996254682,4.0956,4,6.1372,0,435,435,594,1,1239_cee00457f4cfb76a407b12fd5ad714d440a4614c1e5467ee16caf618_orig.jpg,-0.03174604,0.190476,original,keaz01,2022-06-14_12h06.06.244,ratings,2022.1.1,Win32,60.85316132
1.647940075,2.2262,1.086142322,1.4373,0,436,436,194,1,379_eeaa6d9bf5a4ef205dc48bc505cf3a7f24ea86e99af9b371e03602a7_edges.jpg,-0.3926308,2.88936,edges,keaz01,2022-06-14_12h06.06.244,ratings,2022.1.1,Win32,60.85316132
2.986891386,2.0621,0.543071161,3.8938,0,437,437,117,1,332_4d584229bdae2e1782f77f0e953e528f13c3dfa79b4b94736c0310fa_blur.jpg,3.157348,0.483092,blurring,keaz01,2022-06-14_12h06.06.244,ratings,2022.1.1,Win32,60.85316132
1.891385768,1.3371,1.348314607,2.1894,0,438,438,96,1,267_792043debad81ce271cec5b3c3bd9d264efc13f362bec9c7a3f72fe7_orig.jpg,1.980616,0.2107036,original,keaz01,2022-06-14_12h06.06.244,ratings,2022.1.1,Win32,60.85316132
1.11423221,1.8749,1.554307116,3.0107,0,439,439,183,1,369_98db62a1bdabfd1bc551180da6658005b461585cd21614633cf76470_blur.jpg,2.190476,-0.03174604,blurring,keaz01,2022-06-14_12h06.06.244,ratings,2022.1.1,Win32,60.85316132
2.893258427,1.6119,2.088014981,3.1875,0,440,440,120,1,347_27f0e47c2722605b950ccf9fa900f78271e4c3c874064ab5dacac160_orig.jpg,1.838948,0.3097172,original,keaz01,2022-06-14_12h06.06.244,ratings,2022.1.1,Win32,60.85316132
1.872659176,1.7201,1.994382022,2.54,0,441,441,41,1,82_43f4d5aec7c2e5bd495473f6708a0f2d47c9fe34e1fe9436646cb036_circblurext.jpg,2.022756,0.505688,circularblurringext,keaz01,2022-06-14_12h06.06.244,ratings,2022.1.1,Win32,60.85316132
2.949438202,1.6384,2.5,2.654,0,442,442,466,1,736_bb85db1bcda8eb34299aa5791ac65a0a7c343266eb2d6e6e328ec0e1_circblurint.jpg,3.650792,-0.03174604,circularblurringint,keaz01,2022-06-14_12h06.06.244,ratings,2022.1.1,Win32,60.85316132
3.867041199,1.9381,3.520599251,3.249,0,443,443,18,1,48_2cc936b2483ab2944c9158e163342b874ef6c1492fd8fca08c0e096e_orig.jpg,-1.264224,-0.779604,original,keaz01,2022-06-14_12h06.06.244,ratings,2022.1.1,Win32,60.85316132
-3.108614232,3.5428,-2.050561798,4.9369,0,444,444,246,1,414_0187bdf7007109b487865b6a9d388997a6817acf052a6a7cdd5b39d9_orig.jpg,-2.786708,-1.133056,original,keaz01,2022-06-14_12h06.06.244,ratings,2022.1.1,Win32,60.85316132
-1.001872659,4.9785,-1.086142322,5.9402,0,445,445,263,1,416_8a1f874e0057d67a4e6955865ba88b2d8ce2c8b4469589307687a723_circblurext.jpg,-1.753336,3.088264,circularblurringext,keaz01,2022-06-14_12h06.06.244,ratings,2022.1.1,Win32,60.85316132
0.065543071,1.4207,-0.234082397,2.4873,0,446,446,476,1,748_e519892faa7c772a0afaf9eeff36cf0e411574027ab3d9aa4947a048_edges.jpg,-1.813112,3.307432,edges,keaz01,2022-06-14_12h06.06.244,ratings,2022.1.1,Win32,60.85316132
-0.15917603,1.1931,-0.215355805,1.897,0,447,447,572,1,1039_d64da8480fc6e94dcdc513237d600570ae0b9fe48795ac6a8b2d29a7_edges.jpg,-2.507936,-1.142856,edges,keaz01,2022-06-14_12h06.06.244,ratings,2022.1.1,Win32,60.85316132
