valence_slider.response,valence_slider.rt,arousal_slider.response,arousal_slider.rt,trials.thisRepN,trials.thisTrialN,trials.thisN,trials.thisIndex,trials.ran,img_name,vm,am,manipulation,participant,date,expName,psychopyVersion,OS,frameRate
-2.843384545,13.015,-0.165099748,21.681,0,0,0,14,1,39_2fafccaa4dc69045a05845f59c6b3cd2edcf7e0e0c108b24e553afe0_edges.jpg,2.022756,0.463548,edges,krki20,2022-06-09_20h30.19.038,ratings,2022.1.1,iPhone,62.5
-3.577161202,14.848,-0.220132997,18.001,0,1,1,394,1,663_aaf52107fe3a86392530d88b34e86f9d2b6820714cad98d1e3c2cb67_circblurint.jpg,2.58766,0.0918696,circularblurringint,krki20,2022-06-09_20h30.19.038,ratings,2022.1.1,iPhone,62.5
-3.17358404,26.502,0.77046549,17.85,0,2,2,557,1,1014_a5c212ca979d482cf94c2db7697aba75620391a64b030ab7ad2bbecf_circblurext.jpg,-3.174604,-1.374372,circularblurringext,krki20,2022-06-09_20h30.19.038,ratings,2022.1.1,iPhone,62.5
-0.752121073,5.752,-2.017885806,11.054,0,3,3,482,1,759_95e1c46ed9a337414d5c8eada8fa8b9632e18751f5ce6ed587806e91_edges.jpg,2.126984,0.0,edges,krki20,2022-06-09_20h30.19.038,ratings,2022.1.1,iPhone,62.5
-0.71543224,7.836,-2.036230222,11.035,0,4,4,414,1,692_7d7eaf20e6de8956f0fca7500ace97a8599aa8b605a7d690cdb28724_orig.jpg,-2.063492,-1.26984,original,krki20,2022-06-09_20h30.19.038,ratings,2022.1.1,iPhone,62.5
-2.054574639,32.634,-1.926163724,37.551,0,5,5,429,1,694_7a14b8ab7c564dcb0f628c4de7f6cb54e4c5f6601f774bf167641c37_blur.jpg,1.819588,0.116144,blurring,krki20,2022-06-09_20h30.19.038,ratings,2022.1.1,iPhone,62.5
-2.017885806,4.718,-1.907819307,5.218,0,6,6,401,1,683_a004ad18331da968da5debdd15e1447dd7748750af0bc6c57b844200_circblurext.jpg,-2.91956,2.466524,circularblurringext,krki20,2022-06-09_20h30.19.038,ratings,2022.1.1,iPhone,62.5
-0.660398991,3.302,-1.94450814,4.868,0,7,7,254,1,416_5eb54976bb41ce2a6d129ef985f792e716f010fb9b69b15f50f5d2db_edges.jpg,-2.58766,2.602972,edges,krki20,2022-06-09_20h30.19.038,ratings,2022.1.1,iPhone,62.5
-2.861728961,10.069,-0.036688833,18.019,0,8,8,432,1,694_f80f33613b268beffd6c044537cf3b44a84683d6e889bc37b8e9c34b_orig.jpg,-0.3785616,3.34728,original,krki20,2022-06-09_20h30.19.038,ratings,2022.1.1,iPhone,62.5
-2.880073378,8.305,-0.055033249,13.205,0,9,9,364,1,508_a7a9519cdc7aad6844030f4e6cd96cffd1b9c49b71e20ea52789bda2_circblurint.jpg,-3.000388,-1.29694,circularblurringint,krki20,2022-06-09_20h30.19.038,ratings,2022.1.1,iPhone,62.5
0.550332493,8.133,-1.357486815,20.717,0,10,10,151,1,355_00a76f54934d36566dd0e7b091b8aa6a56d8e6b32d349aa578a10b45_bw.jpg,2.910052,0.3439152,blackwhite,krki20,2022-06-09_20h30.19.038,ratings,2022.1.1,iPhone,62.5
0.110066499,2.967,-2.054574639,4.583,0,11,11,228,1,407_578d31d32e806706dde2563213f130b90e621abfed0e47ecabd85d27_orig.jpg,3.5873,-0.444444,original,krki20,2022-06-09_20h30.19.038,ratings,2022.1.1,iPhone,62.5
0.788809906,28.534,-0.917220821,21.885,0,12,12,582,1,1225_59c67a821456f2cce3e5acf66d7f00076bd02caffc984c1eb0df794e_orig.jpg,-0.444444,3.809524,original,krki20,2022-06-09_20h30.19.038,ratings,2022.1.1,iPhone,62.5
-1.522586563,10.117,-1.449208897,19.234,0,13,13,108,1,293_3dfdfafc0c6a54b2da7453750ac281f7718c0b3337b0a74c4563d6bd_orig.jpg,-2.574524,2.632596,original,krki20,2022-06-09_20h30.19.038,ratings,2022.1.1,iPhone,62.5
-1.99954139,13.335,-1.595964228,15.435,0,14,14,370,1,616_05a637f5281666f53d4e2ef69351485fc21d629b37ee2006b2076eb6_circblurint.jpg,-2.380952,-0.832364,circularblurringint,krki20,2022-06-09_20h30.19.038,ratings,2022.1.1,iPhone,62.5
-1.577619812,7.801,-1.907819307,9.4,0,15,15,451,1,716_2ab64478147184c4df720a52cf621875addc9007cb2967e4a9a88909_bw.jpg,2.428484,0.0,blackwhite,krki20,2022-06-09_20h30.19.038,ratings,2022.1.1,iPhone,62.5
-1.192387067,23.668,-0.935565237,25.218,0,16,16,288,1,442_7449d79dae5d652af9b2429872cabdef938646ba024db2f431b3b28d_orig.jpg,1.619048,0.126984,original,krki20,2022-06-09_20h30.19.038,ratings,2022.1.1,iPhone,62.5
-1.027287319,2.937,-1.889474891,13.354,0,17,17,124,1,347_27f0e47c2722605b950ccf9fa900f78271e4c3c874064ab5dacac160_circblurint.jpg,1.838948,0.3097172,circularblurringint,krki20,2022-06-09_20h30.19.038,ratings,2022.1.1,iPhone,62.5
-1.082320569,8.653,0.055033249,10.721,0,18,18,67,1,172_c641c6c56ca6b594b773084e1363c852abdb65f988d7ff802ee503f2_bw.jpg,0.379572,0.01725328,blackwhite,krki20,2022-06-09_20h30.19.038,ratings,2022.1.1,iPhone,62.5
-3.155239624,4.985,-0.055033249,7.419,0,19,19,321,1,460_e06b3af7ff2f2bfb5f9b6e3d5dc25b9aaa40b84823fac8fd934621bd_blur.jpg,-3.430992,-1.607468,blurring,krki20,2022-06-09_20h30.19.038,ratings,2022.1.1,iPhone,62.5
-2.880073378,4.966,-2.311396469,23.699,0,20,20,13,1,39_2fafccaa4dc69045a05845f59c6b3cd2edcf7e0e0c108b24e553afe0_bw.jpg,2.022756,0.463548,blackwhite,krki20,2022-06-09_20h30.19.038,ratings,2022.1.1,iPhone,62.5
-0.697087824,5.1,-1.907819307,6.815,0,21,21,467,1,736_bb85db1bcda8eb34299aa5791ac65a0a7c343266eb2d6e6e328ec0e1_circblurext.jpg,3.650792,-0.03174604,circularblurringext,krki20,2022-06-09_20h30.19.038,ratings,2022.1.1,iPhone,62.5
-2.825040128,5.749,0.091722082,6.782,0,22,22,200,1,380_34772591c787182a37724027eac6948ebc9d4064f6a601d23b923b8e_edges.jpg,2.222224,-0.063492,edges,krki20,2022-06-09_20h30.19.038,ratings,2022.1.1,iPhone,62.5
-2.182985554,4.934,0.110066499,8.618,0,23,23,418,1,692_7d7eaf20e6de8956f0fca7500ace97a8599aa8b605a7d690cdb28724_circblurint.jpg,-2.063492,-1.26984,circularblurringint,krki20,2022-06-09_20h30.19.038,ratings,2022.1.1,iPhone,62.5
-0.036688833,2.403,-0.788809906,3.77,0,24,24,267,1,431_ab5a1dbbe9292ac7f74e276cdabcd372e2c1f852ff34bf7cc6646ef8_blur.jpg,3.102584,0.354334,blurring,krki20,2022-06-09_20h30.19.038,ratings,2022.1.1,iPhone,62.5
-2.751662463,10.414,0.183444164,5.248,0,25,25,529,1,915_dc9fd40a3b5d64a180833a7bac86e7556c24f681f473fe255e41f936_bw.jpg,-3.09294,-0.918696,blackwhite,krki20,2022-06-09_20h30.19.038,ratings,2022.1.1,iPhone,62.5
-1.192387067,37.051,-0.880531988,39.751,0,26,26,42,1,92_5d20d78a8e57e628c6930676473a4e0a485e715841efd6286c660020_orig.jpg,2.126984,0.0,original,krki20,2022-06-09_20h30.19.038,ratings,2022.1.1,iPhone,62.5
-1.375831231,7.118,-0.807154322,10.085,0,27,27,295,1,449_9c1e990a3480e5b51430fe76b0188e69ba2468fd6a866b88b2d0dd75_bw.jpg,0.095238,0.03174604,blackwhite,krki20,2022-06-09_20h30.19.038,ratings,2022.1.1,iPhone,62.5
-2.072919055,2.967,-0.697087824,4.666,0,28,28,221,1,396_208259ea431d47bb7f3946213eb099834eb119756ce304ad473d4d9f_circblurext.jpg,2.857144,-0.3809524,circularblurringext,krki20,2022-06-09_20h30.19.038,ratings,2022.1.1,iPhone,62.5
-2.623251548,2.116,0.018344416,3.417,0,29,29,311,1,455_34a7d8167619d110206c369e3f7dce8a3f99db763a9d8e2b956501d3_circblurext.jpg,-2.526412,-0.3827896,circularblurringext,krki20,2022-06-09_20h30.19.038,ratings,2022.1.1,iPhone,62.5
-2.054574639,7.57,-0.678743407,9.053,0,30,30,324,1,468_8b69b13120daebadd8a4a3166e1419f2404395cba231307a4efa9fde_orig.jpg,2.031744,0.2539684,original,krki20,2022-06-09_20h30.19.038,ratings,2022.1.1,iPhone,62.5
-0.201788581,1.985,-0.110066499,3.502,0,31,31,501,1,854_081a8409e4d6d10923b2dedcc16a3fca405fcd602e55a20d84cac69d_blur.jpg,3.088264,1.21538,blurring,krki20,2022-06-09_20h30.19.038,ratings,2022.1.1,iPhone,62.5
-1.339142399,4.335,-0.550332493,5.919,0,32,32,215,1,394_8e3a0cb945144d53bd1ace04b6256237ed9dcbbd9cb83f8a4886b0e6_circblurext.jpg,-2.593884,2.651956,circularblurringext,krki20,2022-06-09_20h30.19.038,ratings,2022.1.1,iPhone,62.5
-1.504242146,6.116,0.018344416,7.117,0,33,33,588,1,1228_557412d34d6a70b7c5d222e030aa485b351a4574e8ba1a3112d1d13d_orig.jpg,2.137444,0.703464,original,krki20,2022-06-09_20h30.19.038,ratings,2022.1.1,iPhone,62.5
-2.421462967,3.667,-0.146755331,5.75,0,34,34,446,1,709_69c01dcde028a2a1a913f1a2a5026ae1748484f75c89217a040c6791_edges.jpg,1.432444,-0.01935732,edges,krki20,2022-06-09_20h30.19.038,ratings,2022.1.1,iPhone,62.5
0.018344416,3.104,-2.953451043,4.72,0,35,35,217,1,396_208259ea431d47bb7f3946213eb099834eb119756ce304ad473d4d9f_bw.jpg,2.857144,-0.3809524,blackwhite,krki20,2022-06-09_20h30.19.038,ratings,2022.1.1,iPhone,62.5
-2.146296721,4.7,-0.807154322,6.133,0,36,36,51,1,112_b6a4ce721c2e42943d7d8b168751d74cd2f372b1cd4fed5a4404faec_blur.jpg,2.107036,0.505688,blurring,krki20,2022-06-09_20h30.19.038,ratings,2022.1.1,iPhone,62.5
-2.825040128,2.304,-0.330199496,3.652,0,37,37,238,1,410_9633c4ff6e8888fcfca59a60ca86e9606d3e0736500a254101bdf295_circblurint.jpg,-0.3677892,2.981028,circularblurringint,krki20,2022-06-09_20h30.19.038,ratings,2022.1.1,iPhone,62.5
-1.008942903,1.987,-1.981196973,5.554,0,38,38,68,1,172_c641c6c56ca6b594b773084e1363c852abdb65f988d7ff802ee503f2_edges.jpg,0.379572,0.01725328,edges,krki20,2022-06-09_20h30.19.038,ratings,2022.1.1,iPhone,62.5
-1.063976152,3.067,-2.751662463,5.884,0,39,39,379,1,640_0ddb4981a5f5842ed5b4f7ef941be53779189df5e718b1fc5475ad80_bw.jpg,2.571428,-1.873016,blackwhite,krki20,2022-06-09_20h30.19.038,ratings,2022.1.1,iPhone,62.5
0.06427104,68.754,-2.469844257,86.25,0,40,40,39,1,82_43f4d5aec7c2e5bd495473f6708a0f2d47c9fe34e1fe9436646cb036_blur.jpg,2.022756,0.505688,blurring,krki20,2022-06-09_20h30.19.038,ratings,2022.1.1,iPhone,62.5
-2.13930748,4.984,0.964065602,5.702,0,41,41,514,1,858_2f6539ee36aba48c38dc716d4f7c3ae93367d6ddf23ab41745d4172c_circblurint.jpg,0.0623832,0.176752,circularblurringint,krki20,2022-06-09_20h30.19.038,ratings,2022.1.1,iPhone,62.5
-1.423144461,2.402,0.06427104,3.202,0,42,42,62,1,156_08e8cf8f04630e9213e610580de73f51572d1d589878648700bae4dc_edges.jpg,2.222224,0.0,edges,krki20,2022-06-09_20h30.19.038,ratings,2022.1.1,iPhone,62.5
-1.625139158,4.37,0.137723657,21.305,0,43,43,117,1,332_4d584229bdae2e1782f77f0e953e528f13c3dfa79b4b94736c0310fa_blur.jpg,3.157348,0.483092,blurring,krki20,2022-06-09_20h30.19.038,ratings,2022.1.1,iPhone,62.5
0.670255133,3.501,-2.469844257,17.437,0,44,44,37,1,82_43f4d5aec7c2e5bd495473f6708a0f2d47c9fe34e1fe9436646cb036_bw.jpg,2.022756,0.505688,blackwhite,krki20,2022-06-09_20h30.19.038,ratings,2022.1.1,iPhone,62.5
-1.735318084,2.287,0.321355201,3.753,0,45,45,472,1,741_2b218fb015e3da83db73cacdb52e61e0c2534c1fe255bb1c5c74d47f_circblurint.jpg,3.140096,0.448584,circularblurringint,krki20,2022-06-09_20h30.19.038,ratings,2022.1.1,iPhone,62.5
-0.945702448,2.334,-0.872249831,2.733,0,46,46,441,1,700_59cb565f134f1afd066d7b6d936c6511b7cb76de0e9cbb5ce15124ad_blur.jpg,0.0,0.0,blurring,krki20,2022-06-09_20h30.19.038,ratings,2022.1.1,iPhone,62.5
-1.808770702,1.918,0.339718355,2.817,0,47,47,287,1,440_dc6413e2b65369ee2587f4d85621742fe4ca87392d0a8ad2ea7d94e3_circblurext.jpg,-3.016216,1.69404,circularblurringext,krki20,2022-06-09_20h30.19.038,ratings,2022.1.1,iPhone,62.5
-1.680228621,2.687,0.027544731,3.601,0,48,48,11,1,28_6318543b74eeb646a1735477ebc023fdc9ac3849bc0db1957c272a26_circblurext.jpg,2.811244,-0.74584,circularblurringext,krki20,2022-06-09_20h30.19.038,ratings,2022.1.1,iPhone,62.5
-0.045907886,11.353,-0.009181577,12.737,0,49,49,412,1,687_e3b018945792a574962235c88c553b7c318c75eec2596478e8a7b877_circblurint.jpg,3.63918,-0.42586,circularblurringint,krki20,2022-06-09_20h30.19.038,ratings,2022.1.1,iPhone,62.5
0.927339294,2.016,-1.992402245,4.499,0,50,50,49,1,112_b6a4ce721c2e42943d7d8b168751d74cd2f372b1cd4fed5a4404faec_bw.jpg,2.107036,0.505688,blackwhite,krki20,2022-06-09_20h30.19.038,ratings,2022.1.1,iPhone,62.5
-1.000791911,2.216,-0.651891979,2.549,0,51,51,177,1,368_6507b94d7d0199f14efd3706db30c9c44b96085f84e9cc7792e3e0ae_blur.jpg,1.959544,0.400336,blurring,krki20,2022-06-09_20h30.19.038,ratings,2022.1.1,iPhone,62.5
2.341302177,3.418,1.606776004,9.252,0,52,52,7,1,28_6318543b74eeb646a1735477ebc023fdc9ac3849bc0db1957c272a26_bw.jpg,2.811244,-0.74584,blackwhite,krki20,2022-06-09_20h30.19.038,ratings,2022.1.1,iPhone,62.5
-0.156086812,5.631,-0.211176275,7.648,0,53,53,481,1,759_95e1c46ed9a337414d5c8eada8fa8b9632e18751f5ce6ed587806e91_bw.jpg,2.126984,0.0,blackwhite,krki20,2022-06-09_20h30.19.038,ratings,2022.1.1,iPhone,62.5
-2.94728627,4.117,0.964065602,5.351,0,54,54,407,1,686_6745b57686ad5d1bd6cf3e7ed5bc0243a154f8939e88e30321dfcfdb_circblurext.jpg,-1.523808,3.650792,circularblurringext,krki20,2022-06-09_20h30.19.038,ratings,2022.1.1,iPhone,62.5
-3.039102042,15.218,0.835523522,10.118,0,55,55,405,1,686_6745b57686ad5d1bd6cf3e7ed5bc0243a154f8939e88e30321dfcfdb_blur.jpg,-1.523808,3.650792,blurring,krki20,2022-06-09_20h30.19.038,ratings,2022.1.1,iPhone,62.5
-1.03751822,1.8,-0.651891979,2.116,0,56,56,149,1,354_e46c3ec6fb00773f64f2bcd212385f253c389808fe724b7cf8611051_circblurext.jpg,2.018292,0.0,circularblurringext,krki20,2022-06-09_20h30.19.038,ratings,2022.1.1,iPhone,62.5
-1.71695493,5.886,0.082634194,7.053,0,57,57,40,1,82_43f4d5aec7c2e5bd495473f6708a0f2d47c9fe34e1fe9436646cb036_circblurint.jpg,2.022756,0.505688,circularblurringint,krki20,2022-06-09_20h30.19.038,ratings,2022.1.1,iPhone,62.5
-2.616749492,2.269,0.927339294,3.335,0,58,58,539,1,986_a77edb21e78bc3a6aa7406517824596b3496ad6c657b6befb84cf370_circblurext.jpg,-3.906316,-0.60496,circularblurringext,krki20,2022-06-09_20h30.19.038,ratings,2022.1.1,iPhone,62.5
-1.790407547,24.607,0.100997349,26.573,0,59,59,558,1,1022_cf035e583d41a856836f8b0ae314ecbe79dffd9e40ef6a08cc26028f_orig.jpg,-0.2516452,3.05846,original,krki20,2022-06-09_20h30.19.038,ratings,2022.1.1,iPhone,62.5
-2.26784956,3.237,0.082634194,4.104,0,60,60,355,1,500_3b520c7f352afa1a9f8c07e56cc0588cdc04d25ff6e7b602b5e280cb_bw.jpg,-0.8328,3.11766,blackwhite,krki20,2022-06-09_20h30.19.038,ratings,2022.1.1,iPhone,62.5
-0.19281312,2.169,-0.174449966,3.886,0,61,61,516,1,860_05c4e22518a30d3d2add458a8fc6488f87b9b02dd8e385ded939f025_orig.jpg,1.955092,0.3097172,original,krki20,2022-06-09_20h30.19.038,ratings,2022.1.1,iPhone,62.5
-0.48662359,3.517,-1.606776004,6.084,0,62,62,23,1,48_2cc936b2483ab2944c9158e163342b874ef6c1492fd8fca08c0e096e_circblurext.jpg,-1.264224,-0.779604,circularblurringext,krki20,2022-06-09_20h30.19.038,ratings,2022.1.1,iPhone,62.5
-0.835523522,3.017,-0.762070905,3.517,0,63,63,344,1,494_5c6c3b85a2734a43c24bfe337d42ffcc82b7347227804d01c784cef4_edges.jpg,0.03871468,0.0,edges,krki20,2022-06-09_20h30.19.038,ratings,2022.1.1,iPhone,62.5
-2.029128554,3.785,-0.100997349,6.467,0,64,64,283,1,440_dc6413e2b65369ee2587f4d85621742fe4ca87392d0a8ad2ea7d94e3_bw.jpg,-3.016216,1.69404,blackwhite,krki20,2022-06-09_20h30.19.038,ratings,2022.1.1,iPhone,62.5
-0.945702448,2.085,-1.000791911,2.323,0,65,65,263,1,416_8a1f874e0057d67a4e6955865ba88b2d8ce2c8b4469589307687a723_circblurext.jpg,-1.753336,3.088264,circularblurringext,krki20,2022-06-09_20h30.19.038,ratings,2022.1.1,iPhone,62.5
1.772044393,3.549,-2.855470498,6.849,0,66,66,313,1,459_46e25de472bb056cb470716d30937415f7344bfc4354d6eb710d8c9f_bw.jpg,0.03174604,0.0,blackwhite,krki20,2022-06-09_20h30.19.038,ratings,2022.1.1,iPhone,62.5
-1.753681239,2.119,0.449897281,3.119,0,67,67,233,1,407_578d31d32e806706dde2563213f130b90e621abfed0e47ecabd85d27_circblurext.jpg,3.5873,-0.444444,circularblurringext,krki20,2022-06-09_20h30.19.038,ratings,2022.1.1,iPhone,62.5
1.276239226,4.354,0.964065602,6.771,0,68,68,402,1,686_6745b57686ad5d1bd6cf3e7ed5bc0243a154f8939e88e30321dfcfdb_orig.jpg,-1.523808,3.650792,original,krki20,2022-06-09_20h30.19.038,ratings,2022.1.1,iPhone,62.5
-0.156086812,27.552,-0.156086812,31.303,0,69,69,460,1,720_483c541c48959a597fcf44320941afaf8b7695105f90d65b5f6b30f2_circblurint.jpg,2.158732,-0.2539684,circularblurringint,krki20,2022-06-09_20h30.19.038,ratings,2022.1.1,iPhone,62.5
0.872249831,2.587,0.468260435,3.673,0,70,70,184,1,369_98db62a1bdabfd1bc551180da6658005b461585cd21614633cf76470_circblurint.jpg,2.190476,-0.03174604,circularblurringint,krki20,2022-06-09_20h30.19.038,ratings,2022.1.1,iPhone,62.5
-2.047491708,1.667,0.137723657,2.434,0,71,71,250,1,414_0187bdf7007109b487865b6a9d388997a6817acf052a6a7cdd5b39d9_circblurint.jpg,-2.786708,-1.133056,circularblurringint,krki20,2022-06-09_20h30.19.038,ratings,2022.1.1,iPhone,62.5
-1.918949628,2.815,0.853886676,3.369,0,72,72,309,1,455_34a7d8167619d110206c369e3f7dce8a3f99db763a9d8e2b956501d3_blur.jpg,-2.526412,-0.3827896,blurring,krki20,2022-06-09_20h30.19.038,ratings,2022.1.1,iPhone,62.5
-1.514960232,4.218,-0.358081509,4.604,0,73,73,458,1,720_483c541c48959a597fcf44320941afaf8b7695105f90d65b5f6b30f2_edges.jpg,2.158732,-0.2539684,edges,krki20,2022-06-09_20h30.19.038,ratings,2022.1.1,iPhone,62.5
0.560076207,2.635,-1.808770702,3.937,0,74,74,34,1,60_ad52063167538de24f94d7dfd04808cb94cf8f426c40871d2f126505_circblurint.jpg,2.158732,0.0,circularblurringint,krki20,2022-06-09_20h30.19.038,ratings,2022.1.1,iPhone,62.5
-2.708565264,30.871,0.651891979,31.787,0,75,75,116,1,332_4d584229bdae2e1782f77f0e953e528f13c3dfa79b4b94736c0310fa_edges.jpg,3.157348,0.483092,edges,krki20,2022-06-09_20h30.19.038,ratings,2022.1.1,iPhone,62.5
0.100997349,2.24,-2.102581171,3.103,0,76,76,348,1,498_305b74cdc4784d9d25e72724302e5402def70177ea31ae7e25fab66b_orig.jpg,3.04762,-0.444444,original,krki20,2022-06-09_20h30.19.038,ratings,2022.1.1,iPhone,62.5
-0.19281312,5.501,-1.331328689,7.168,0,77,77,542,1,1005_b980c0747d20935bc63cc27a9e05ce2ff5bae98f859872ec48edd7f5_edges.jpg,3.428572,-0.476192,edges,krki20,2022-06-09_20h30.19.038,ratings,2022.1.1,iPhone,62.5
0.082634194,3.899,-0.19281312,5.132,0,78,78,281,1,440_9bf7e8609729bf888835168834da6c3ff30b75d0d4f36e2ee6918bcc_circblurext.jpg,-2.284164,2.710028,circularblurringext,krki20,2022-06-09_20h30.19.038,ratings,2022.1.1,iPhone,62.5
-1.29460238,2.366,0.358081509,3.099,0,79,79,296,1,449_9c1e990a3480e5b51430fe76b0188e69ba2468fd6a866b88b2d0dd75_edges.jpg,0.095238,0.03174604,edges,krki20,2022-06-09_20h30.19.038,ratings,2022.1.1,iPhone,62.5
-0.229539429,3.002,0.266265738,6.705,0,80,80,374,1,620_9674719009d75dcfeaed7f15932c43e1fd1af5e25d47b8aadd61efe2_edges.jpg,-0.561364,1.142084,edges,krki20,2022-06-09_20h30.19.038,ratings,2022.1.1,iPhone,62.5
-0.780434059,2.202,-0.964065602,2.82,0,81,81,201,1,380_34772591c787182a37724027eac6948ebc9d4064f6a601d23b923b8e_blur.jpg,2.222224,-0.063492,blurring,krki20,2022-06-09_20h30.19.038,ratings,2022.1.1,iPhone,62.5
-1.092607683,2.967,-0.633528824,3.551,0,82,82,545,1,1005_b980c0747d20935bc63cc27a9e05ce2ff5bae98f859872ec48edd7f5_circblurext.jpg,3.428572,-0.476192,circularblurringext,krki20,2022-06-09_20h30.19.038,ratings,2022.1.1,iPhone,62.5
-2.708565264,2.416,1.441507615,3.366,0,83,83,284,1,440_dc6413e2b65369ee2587f4d85621742fe4ca87392d0a8ad2ea7d94e3_edges.jpg,-3.016216,1.69404,edges,krki20,2022-06-09_20h30.19.038,ratings,2022.1.1,iPhone,62.5
0.045907886,2.299,-1.570049695,7.399,0,84,84,395,1,663_aaf52107fe3a86392530d88b34e86f9d2b6820714cad98d1e3c2cb67_circblurext.jpg,2.58766,0.0918696,circularblurringext,krki20,2022-06-09_20h30.19.038,ratings,2022.1.1,iPhone,62.5
-1.918949628,2.584,-0.045907886,3.634,0,85,85,308,1,455_34a7d8167619d110206c369e3f7dce8a3f99db763a9d8e2b956501d3_edges.jpg,-2.526412,-0.3827896,edges,krki20,2022-06-09_20h30.19.038,ratings,2022.1.1,iPhone,62.5
1.055881374,4.534,-2.102581171,7.652,0,86,86,145,1,354_e46c3ec6fb00773f64f2bcd212385f253c389808fe724b7cf8611051_bw.jpg,2.018292,0.0,blackwhite,krki20,2022-06-09_20h30.19.038,ratings,2022.1.1,iPhone,62.5
-1.955675936,2.584,0.431534127,3.15,0,87,87,327,1,468_8b69b13120daebadd8a4a3166e1419f2404395cba231307a4efa9fde_blur.jpg,2.031744,0.2539684,blurring,krki20,2022-06-09_20h30.19.038,ratings,2022.1.1,iPhone,62.5
-0.982428757,15.901,-0.853886676,17.201,0,88,88,191,1,369_c99797771115d7627d4abe3415f814497288f91a7be1a04c17c776b9_circblurext.jpg,3.619824,-0.174216,circularblurringext,krki20,2022-06-09_20h30.19.038,ratings,2022.1.1,iPhone,62.5
-0.413170972,3.033,-2.782017881,4.133,0,89,89,55,1,137_0e6a04243c0a42a5e2528a2d181255ca2a4b7bd6e7978c5c2059c69f_bw.jpg,-0.95238,2.095236,blackwhite,krki20,2022-06-09_20h30.19.038,ratings,2022.1.1,iPhone,62.5
-0.229539429,5.893,-0.19281312,3.112,0,90,90,520,1,860_05c4e22518a30d3d2add458a8fc6488f87b9b02dd8e385ded939f025_circblurint.jpg,1.955092,0.3097172,circularblurringint,krki20,2022-06-09_20h30.19.038,ratings,2022.1.1,iPhone,62.5
-2.194396943,2.6,0.302992046,24.519,0,91,91,157,1,358_157f8ac929713531a15b1ecf115e7b659cb90e83d675251e368d165f_bw.jpg,-3.777776,-0.571428,blackwhite,krki20,2022-06-09_20h30.19.038,ratings,2022.1.1,iPhone,62.5
-1.900586473,4.701,0.045907886,6.371,0,92,92,236,1,410_9633c4ff6e8888fcfca59a60ca86e9606d3e0736500a254101bdf295_edges.jpg,-0.3677892,2.981028,edges,krki20,2022-06-09_20h30.19.038,ratings,2022.1.1,iPhone,62.5
-2.635112646,3.101,0.560076207,4.351,0,93,93,2,1,13_771f4fcf0a212d25d6a78565e7f34cc5ddd823e7afbdc77ef063326e_edges.jpg,2.190476,0.0,edges,krki20,2022-06-09_20h30.19.038,ratings,2022.1.1,iPhone,62.5
-2.304575869,2.055,1.423144461,4.639,0,94,94,574,1,1039_d64da8480fc6e94dcdc513237d600570ae0b9fe48795ac6a8b2d29a7_circblurint.jpg,-2.507936,-1.142856,circularblurringint,krki20,2022-06-09_20h30.19.038,ratings,2022.1.1,iPhone,62.5
0.908976139,2.619,-1.937312782,4.984,0,95,95,174,1,368_6507b94d7d0199f14efd3706db30c9c44b96085f84e9cc7792e3e0ae_orig.jpg,1.959544,0.400336,original,krki20,2022-06-09_20h30.19.038,ratings,2022.1.1,iPhone,62.5
-0.945702448,2.602,-1.239512917,2.869,0,96,96,197,1,379_eeaa6d9bf5a4ef205dc48bc505cf3a7f24ea86e99af9b371e03602a7_circblurext.jpg,-0.3926308,2.88936,circularblurringext,krki20,2022-06-09_20h30.19.038,ratings,2022.1.1,iPhone,62.5
-0.100997349,2.952,-0.229539429,5.506,0,97,97,125,1,347_27f0e47c2722605b950ccf9fa900f78271e4c3c874064ab5dacac160_circblurext.jpg,1.838948,0.3097172,circularblurringext,krki20,2022-06-09_20h30.19.038,ratings,2022.1.1,iPhone,62.5
-0.945702448,4.919,-2.341302177,7.552,0,98,98,204,1,381_5935a9f9796adce2f1539af6c75bcdc0c80d847a2ce9b77cf59b7672_orig.jpg,-1.327432,-0.442476,original,krki20,2022-06-09_20h30.19.038,ratings,2022.1.1,iPhone,62.5
-2.120944325,2.268,1.092607683,3.283,0,99,99,135,1,349_8809a67686d34844c915d7700e2ea72ad1c02ae232ae0d3cc0e458d4_blur.jpg,-3.619048,-0.2857144,blurring,krki20,2022-06-09_20h30.19.038,ratings,2022.1.1,iPhone,62.5
1.110970837,3.981,-2.469844257,4.914,0,100,100,31,1,60_ad52063167538de24f94d7dfd04808cb94cf8f426c40871d2f126505_bw.jpg,2.158732,0.0,blackwhite,krki20,2022-06-09_20h30.19.038,ratings,2022.1.1,iPhone,62.5
-1.863860165,3.867,0.266265738,7.235,0,101,101,593,1,1228_557412d34d6a70b7c5d222e030aa485b351a4574e8ba1a3112d1d13d_circblurext.jpg,2.137444,0.703464,circularblurringext,krki20,2022-06-09_20h30.19.038,ratings,2022.1.1,iPhone,62.5
1.03751822,7.253,1.441507615,8.984,0,102,102,105,1,284_cdcbd54fc995081ac95c8b2c37a19cebb341f61a8eb268cee1623492_blur.jpg,-1.015872,2.095236,blurring,krki20,2022-06-09_20h30.19.038,ratings,2022.1.1,iPhone,62.5
-1.478233924,2.303,-0.009181577,37.822,0,103,103,226,1,403_57ac47f43882fc031a6067b1a388c0b2cbe8708dcbd2ff1019932eff_circblurint.jpg,-3.333332,-1.396824,circularblurringint,krki20,2022-06-09_20h30.19.038,ratings,2022.1.1,iPhone,62.5
-0.504986744,25.791,-1.698591776,27.153,0,104,104,479,1,748_e519892faa7c772a0afaf9eeff36cf0e411574027ab3d9aa4947a048_circblurext.jpg,-1.813112,3.307432,circularblurringext,krki20,2022-06-09_20h30.19.038,ratings,2022.1.1,iPhone,62.5
0.945702448,2.687,-1.551686541,4.187,0,105,105,456,1,720_483c541c48959a597fcf44320941afaf8b7695105f90d65b5f6b30f2_orig.jpg,2.158732,-0.2539684,original,krki20,2022-06-09_20h30.19.038,ratings,2022.1.1,iPhone,62.5
0.082634194,61.404,-0.504986744,64.12,0,106,106,352,1,498_305b74cdc4784d9d25e72724302e5402def70177ea31ae7e25fab66b_circblurint.jpg,3.04762,-0.444444,circularblurringint,krki20,2022-06-09_20h30.19.038,ratings,2022.1.1,iPhone,62.5
-2.047491708,2.769,-1.423144461,3.685,0,107,107,572,1,1039_d64da8480fc6e94dcdc513237d600570ae0b9fe48795ac6a8b2d29a7_edges.jpg,-2.507936,-1.142856,edges,krki20,2022-06-09_20h30.19.038,ratings,2022.1.1,iPhone,62.5
-0.817160368,2.884,-0.964065602,3.285,0,108,108,81,1,242_85283f6935a89812ab229dcad9ba184529c9242ac3106d768ecf3ab3_blur.jpg,2.14918,-0.2949852,blurring,krki20,2022-06-09_20h30.19.038,ratings,2022.1.1,iPhone,62.5
0.560076207,2.233,-1.441507615,3.066,0,109,109,469,1,741_2b218fb015e3da83db73cacdb52e61e0c2534c1fe255bb1c5c74d47f_bw.jpg,3.140096,0.448584,blackwhite,krki20,2022-06-09_20h30.19.038,ratings,2022.1.1,iPhone,62.5
-0.376444664,5.097,0.009181577,8.364,0,110,110,82,1,242_85283f6935a89812ab229dcad9ba184529c9242ac3106d768ecf3ab3_circblurint.jpg,2.14918,-0.2949852,circularblurringint,krki20,2022-06-09_20h30.19.038,ratings,2022.1.1,iPhone,62.5
-2.39639164,5.317,0.468260435,7.837,0,111,111,294,1,449_9c1e990a3480e5b51430fe76b0188e69ba2468fd6a866b88b2d0dd75_orig.jpg,0.095238,0.03174604,original,krki20,2022-06-09_20h30.19.038,ratings,2022.1.1,iPhone,62.5
-1.019155065,5.435,-1.239512917,54.539,0,112,112,262,1,416_8a1f874e0057d67a4e6955865ba88b2d8ce2c8b4469589307687a723_circblurint.jpg,-1.753336,3.088264,circularblurringint,krki20,2022-06-09_20h30.19.038,ratings,2022.1.1,iPhone,62.5
0.358081509,11.185,-0.321355201,12.219,0,113,113,186,1,369_c99797771115d7627d4abe3415f814497288f91a7be1a04c17c776b9_orig.jpg,3.619824,-0.174216,original,krki20,2022-06-09_20h30.19.038,ratings,2022.1.1,iPhone,62.5
-2.176033788,3.003,0.596802516,4.086,0,114,114,424,1,692_e3e3bf88684fbbcdb9849a4147f9e2fcd39b0f083554a829aca4e9fa_circblurint.jpg,-0.44522,3.135888,circularblurringint,krki20,2022-06-09_20h30.19.038,ratings,2022.1.1,iPhone,62.5
-2.176033788,2.35,1.184423454,2.72,0,115,115,531,1,915_dc9fd40a3b5d64a180833a7bac86e7556c24f681f473fe255e41f936_blur.jpg,-3.09294,-0.918696,blurring,krki20,2022-06-09_20h30.19.038,ratings,2022.1.1,iPhone,62.5
-1.900586473,5.501,-0.19281312,3.617,0,116,116,399,1,683_a004ad18331da968da5debdd15e1447dd7748750af0bc6c57b844200_blur.jpg,-2.91956,2.466524,blurring,krki20,2022-06-09_20h30.19.038,ratings,2022.1.1,iPhone,62.5
-0.670255133,41.388,-1.074244528,41.989,0,117,117,555,1,1014_a5c212ca979d482cf94c2db7697aba75620391a64b030ab7ad2bbecf_blur.jpg,-3.174604,-1.374372,blurring,krki20,2022-06-09_20h30.19.038,ratings,2022.1.1,iPhone,62.5
-0.19281312,5.341,-1.606776004,6.287,0,118,118,300,1,453_54f106fd1d4b65fa4aa347407127fc30d49f791e81aee3a0bbe44489_orig.jpg,2.222224,0.0,original,krki20,2022-06-09_20h30.19.038,ratings,2022.1.1,iPhone,62.5
-1.680228621,1.986,0.725344596,2.501,0,119,119,338,1,492_a1a4d288d3bc486c83c3b6a835c42891989f5ba781633932298a7676_edges.jpg,3.406892,-0.44522,edges,krki20,2022-06-09_20h30.19.038,ratings,2022.1.1,iPhone,62.5
-2.010765399,1.716,0.321355201,2.2,0,120,120,454,1,716_2ab64478147184c4df720a52cf621875addc9007cb2967e4a9a88909_circblurint.jpg,2.428484,0.0,circularblurringint,krki20,2022-06-09_20h30.19.038,ratings,2022.1.1,iPhone,62.5
0.06427104,1.968,-1.570049695,2.7,0,121,121,182,1,369_98db62a1bdabfd1bc551180da6658005b461585cd21614633cf76470_edges.jpg,2.190476,-0.03174604,edges,krki20,2022-06-09_20h30.19.038,ratings,2022.1.1,iPhone,62.5
-0.927339294,3.049,-1.570049695,4.382,0,122,122,386,1,646_577760d718dab44c6f04d77408c5644a120065ce07a9503957d0850a_edges.jpg,-2.690668,2.61324,edges,krki20,2022-06-09_20h30.19.038,ratings,2022.1.1,iPhone,62.5
-1.955675936,3.268,-0.100997349,4.301,0,123,123,493,1,824_b1d91cc824ce0d3d383d3147da88d3d6dbaf6be918bab79e3ec8f501_bw.jpg,-3.645176,-1.432784,blackwhite,krki20,2022-06-09_20h30.19.038,ratings,2022.1.1,iPhone,62.5
1.808770702,2.537,-2.81874419,10.04,0,124,124,498,1,854_081a8409e4d6d10923b2dedcc16a3fca405fcd602e55a20d84cac69d_orig.jpg,3.088264,1.21538,original,krki20,2022-06-09_20h30.19.038,ratings,2022.1.1,iPhone,62.5
-0.61516567,2.752,-1.074244528,3.933,0,125,125,223,1,403_57ac47f43882fc031a6067b1a388c0b2cbe8708dcbd2ff1019932eff_bw.jpg,-3.333332,-1.396824,blackwhite,krki20,2022-06-09_20h30.19.038,ratings,2022.1.1,iPhone,62.5
-1.900586473,2.338,-1.350243526,44.33,0,126,126,358,1,500_3b520c7f352afa1a9f8c07e56cc0588cdc04d25ff6e7b602b5e280cb_circblurint.jpg,-0.8328,3.11766,circularblurringint,krki20,2022-06-09_20h30.19.038,ratings,2022.1.1,iPhone,62.5
0.424362251,3.173,-2.121811255,3.539,0,127,127,128,1,349_18d92ef5c21ca70a3dd237aad251594e1688bbe01d8cff37b89c46b8_edges.jpg,-2.74874,-1.258228,edges,krki20,2022-06-09_20h30.19.038,ratings,2022.1.1,iPhone,62.5
-1.350243526,17.646,-0.887302889,18.862,0,128,128,297,1,449_9c1e990a3480e5b51430fe76b0188e69ba2468fd6a866b88b2d0dd75_blur.jpg,0.095238,0.03174604,blurring,krki20,2022-06-09_20h30.19.038,ratings,2022.1.1,iPhone,62.5
-2.353281574,3.09,1.19592998,3.908,0,129,129,385,1,646_577760d718dab44c6f04d77408c5644a120065ce07a9503957d0850a_bw.jpg,-2.690668,2.61324,blackwhite,krki20,2022-06-09_20h30.19.038,ratings,2022.1.1,iPhone,62.5
-2.276124801,2.243,1.813184164,2.843,0,130,130,384,1,646_577760d718dab44c6f04d77408c5644a120065ce07a9503957d0850a_orig.jpg,-2.690668,2.61324,original,krki20,2022-06-09_20h30.19.038,ratings,2022.1.1,iPhone,62.5
-1.273086753,7.277,-0.192891932,10.695,0,131,131,592,1,1228_557412d34d6a70b7c5d222e030aa485b351a4574e8ba1a3112d1d13d_circblurint.jpg,2.137444,0.703464,circularblurringint,krki20,2022-06-09_20h30.19.038,ratings,2022.1.1,iPhone,62.5
-2.353281574,4.678,1.427400299,2.51,0,132,132,166,1,361_b5541309527dc3c2422f45a95ebb0ed32005e6fe10d0489a1ff1fbdc_circblurint.jpg,-3.987612,-0.2516452,circularblurringint,krki20,2022-06-09_20h30.19.038,ratings,2022.1.1,iPhone,62.5
-1.581713845,4.277,-0.501519024,5.242,0,133,133,22,1,48_2cc936b2483ab2944c9158e163342b874ef6c1492fd8fca08c0e096e_circblurint.jpg,-1.264224,-0.779604,circularblurringint,krki20,2022-06-09_20h30.19.038,ratings,2022.1.1,iPhone,62.5
-2.661908666,2.776,1.273086753,3.559,0,134,134,388,1,646_577760d718dab44c6f04d77408c5644a120065ce07a9503957d0850a_circblurint.jpg,-2.690668,2.61324,circularblurringint,krki20,2022-06-09_20h30.19.038,ratings,2022.1.1,iPhone,62.5
1.967497709,5.542,-2.661908666,6.209,0,135,135,576,1,1061_665178b9cb0bc869cc2e2b68def4838db04e66f9531098fb75875a09_orig.jpg,0.3492064,-0.3174604,original,krki20,2022-06-09_20h30.19.038,ratings,2022.1.1,iPhone,62.5
1.967497709,4.511,-2.739065439,12.877,0,136,136,577,1,1061_665178b9cb0bc869cc2e2b68def4838db04e66f9531098fb75875a09_bw.jpg,0.3492064,-0.3174604,blackwhite,krki20,2022-06-09_20h30.19.038,ratings,2022.1.1,iPhone,62.5
-2.661908666,2.527,1.427400299,3.128,0,137,137,323,1,460_e06b3af7ff2f2bfb5f9b6e3d5dc25b9aaa40b84823fac8fd934621bd_circblurext.jpg,-3.430992,-1.607468,circularblurringext,krki20,2022-06-09_20h30.19.038,ratings,2022.1.1,iPhone,62.5
-0.347205478,138.984,-1.273086753,141.133,0,138,138,509,1,855_66d893451dfd1e7615132071c6c8a82b02dc2b37781cd89400883b26_circblurext.jpg,2.69484,0.2143624,circularblurringext,krki20,2022-06-09_20h30.19.038,ratings,2022.1.1,iPhone,62.5
-0.347205478,22.625,-2.353281574,26.261,0,139,139,486,1,818_877aae033c31e3bbca4486321a5307f87cf53c576c546462d3daf194_orig.jpg,-1.277584,0.619436,original,krki20,2022-06-09_20h30.19.038,ratings,2022.1.1,iPhone,62.5
-1.736027391,3.213,-0.270048705,4.944,0,140,140,273,1,434_ba36d91204d7e578001f6a545d7501e65d209554def5a3c8b7583825_blur.jpg,-3.523808,1.428572,blurring,krki20,2022-06-09_20h30.19.038,ratings,2022.1.1,iPhone,62.5
-0.192891932,4.526,-1.736027391,5.928,0,141,141,468,1,741_2b218fb015e3da83db73cacdb52e61e0c2534c1fe255bb1c5c74d47f_orig.jpg,3.140096,0.448584,original,krki20,2022-06-09_20h30.19.038,ratings,2022.1.1,iPhone,62.5
-1.890340936,4.54,0.270048705,5.291,0,142,142,165,1,361_b5541309527dc3c2422f45a95ebb0ed32005e6fe10d0489a1ff1fbdc_blur.jpg,-3.987612,-0.2516452,blurring,krki20,2022-06-09_20h30.19.038,ratings,2022.1.1,iPhone,62.5
-0.192891932,61.747,-1.273086753,63.613,0,143,143,507,1,855_66d893451dfd1e7615132071c6c8a82b02dc2b37781cd89400883b26_blur.jpg,2.69484,0.2143624,blurring,krki20,2022-06-09_20h30.19.038,ratings,2022.1.1,iPhone,62.5
-1.581713845,3.728,-0.115735159,5.178,0,144,144,361,1,508_a7a9519cdc7aad6844030f4e6cd96cffd1b9c49b71e20ea52789bda2_bw.jpg,-3.000388,-1.29694,blackwhite,krki20,2022-06-09_20h30.19.038,ratings,2022.1.1,iPhone,62.5
-2.276124801,2.777,1.118773207,3.211,0,145,145,562,1,1022_cf035e583d41a856836f8b0ae314ecbe79dffd9e40ef6a08cc26028f_circblurint.jpg,-0.2516452,3.05846,circularblurringint,krki20,2022-06-09_20h30.19.038,ratings,2022.1.1,iPhone,62.5
-2.121811255,2.947,0.578675797,3.481,0,146,146,112,1,293_3dfdfafc0c6a54b2da7453750ac281f7718c0b3337b0a74c4563d6bd_circblurint.jpg,-2.574524,2.632596,circularblurringint,krki20,2022-06-09_20h30.19.038,ratings,2022.1.1,iPhone,62.5
-1.813184164,2.379,-1.273086753,9.463,0,147,147,484,1,759_95e1c46ed9a337414d5c8eada8fa8b9632e18751f5ce6ed587806e91_circblurint.jpg,2.126984,0.0,circularblurringint,krki20,2022-06-09_20h30.19.038,ratings,2022.1.1,iPhone,62.5
0.115735159,81.148,0.347205478,79.5,0,148,148,583,1,1225_59c67a821456f2cce3e5acf66d7f00076bd02caffc984c1eb0df794e_bw.jpg,-0.444444,3.809524,blackwhite,krki20,2022-06-09_20h30.19.038,ratings,2022.1.1,iPhone,62.5
-1.19592998,3.176,-1.350243526,4.809,0,149,149,208,1,381_5935a9f9796adce2f1539af6c75bcdc0c80d847a2ce9b77cf59b7672_circblurint.jpg,-1.327432,-0.442476,circularblurringint,krki20,2022-06-09_20h30.19.038,ratings,2022.1.1,iPhone,62.5
0.270048705,64.199,-1.736027391,65.615,0,150,150,164,1,361_b5541309527dc3c2422f45a95ebb0ed32005e6fe10d0489a1ff1fbdc_edges.jpg,-3.987612,-0.2516452,edges,krki20,2022-06-09_20h30.19.038,ratings,2022.1.1,iPhone,62.5
-1.427400299,2.658,-0.192891932,5.628,0,151,151,63,1,156_08e8cf8f04630e9213e610580de73f51572d1d589878648700bae4dc_blur.jpg,2.222224,0.0,blurring,krki20,2022-06-09_20h30.19.038,ratings,2022.1.1,iPhone,62.5
1.041616434,2.488,-1.736027391,4.122,0,152,152,198,1,380_34772591c787182a37724027eac6948ebc9d4064f6a601d23b923b8e_orig.jpg,2.222224,-0.063492,original,krki20,2022-06-09_20h30.19.038,ratings,2022.1.1,iPhone,62.5
1.041616434,2.341,0.270048705,4.26,0,153,153,411,1,687_e3b018945792a574962235c88c553b7c318c75eec2596478e8a7b877_blur.jpg,3.63918,-0.42586,blurring,krki20,2022-06-09_20h30.19.038,ratings,2022.1.1,iPhone,62.5
0.732989343,3.331,-1.581713845,4.728,0,154,154,546,1,1010_06d15f44b979c086561137000ec070ba4cd479856f92840a7850b2bf_orig.jpg,0.189786,-0.189786,original,krki20,2022-06-09_20h30.19.038,ratings,2022.1.1,iPhone,62.5
0.65583257,51.946,0.115735159,52.364,0,155,155,190,1,369_c99797771115d7627d4abe3415f814497288f91a7be1a04c17c776b9_circblurint.jpg,3.619824,-0.174216,circularblurringint,krki20,2022-06-09_20h30.19.038,ratings,2022.1.1,iPhone,62.5
-3.124849303,2.495,1.813184164,6.294,0,156,156,318,1,460_e06b3af7ff2f2bfb5f9b6e3d5dc25b9aaa40b84823fac8fd934621bd_orig.jpg,-3.430992,-1.607468,original,krki20,2022-06-09_20h30.19.038,ratings,2022.1.1,iPhone,62.5
-1.427400299,15.843,0.192891932,16.443,0,157,157,568,1,1037_e2eb929a6de79a63ce6cfe5321fcb74a203b134e4094932d90b01d99_circblurint.jpg,2.651956,0.0,circularblurringint,krki20,2022-06-09_20h30.19.038,ratings,2022.1.1,iPhone,62.5
-1.19592998,3.647,-1.118773207,3.965,0,158,158,214,1,394_8e3a0cb945144d53bd1ace04b6256237ed9dcbbd9cb83f8a4886b0e6_circblurint.jpg,-2.593884,2.651956,circularblurringint,krki20,2022-06-09_20h30.19.038,ratings,2022.1.1,iPhone,62.5
-1.273086753,2.695,-0.810146116,3.411,0,159,159,477,1,748_e519892faa7c772a0afaf9eeff36cf0e411574027ab3d9aa4947a048_blur.jpg,-1.813112,3.307432,blurring,krki20,2022-06-09_20h30.19.038,ratings,2022.1.1,iPhone,62.5
-0.810146116,4.076,-0.964459661,4.324,0,160,160,148,1,354_e46c3ec6fb00773f64f2bcd212385f253c389808fe724b7cf8611051_circblurint.jpg,2.018292,0.0,circularblurringint,krki20,2022-06-09_20h30.19.038,ratings,2022.1.1,iPhone,62.5
-1.350243526,5.291,-0.810146116,67.481,0,161,161,579,1,1061_665178b9cb0bc869cc2e2b68def4838db04e66f9531098fb75875a09_blur.jpg,0.3492064,-0.3174604,blurring,krki20,2022-06-09_20h30.19.038,ratings,2022.1.1,iPhone,62.5
-0.501519024,4.141,-2.430438347,6.142,0,162,162,212,1,394_8e3a0cb945144d53bd1ace04b6256237ed9dcbbd9cb83f8a4886b0e6_edges.jpg,-2.593884,2.651956,edges,krki20,2022-06-09_20h30.19.038,ratings,2022.1.1,iPhone,62.5
-2.739065439,2.925,0.810146116,4.275,0,163,163,306,1,455_34a7d8167619d110206c369e3f7dce8a3f99db763a9d8e2b956501d3_orig.jpg,-2.526412,-0.3827896,original,krki20,2022-06-09_20h30.19.038,ratings,2022.1.1,iPhone,62.5
-2.430438347,1.729,1.967497709,2.843,0,164,164,496,1,824_b1d91cc824ce0d3d383d3147da88d3d6dbaf6be918bab79e3ec8f501_circblurint.jpg,-3.645176,-1.432784,circularblurringint,krki20,2022-06-09_20h30.19.038,ratings,2022.1.1,iPhone,62.5
-3.279162849,2.577,2.50759512,3.31,0,165,165,319,1,460_e06b3af7ff2f2bfb5f9b6e3d5dc25b9aaa40b84823fac8fd934621bd_bw.jpg,-3.430992,-1.607468,blackwhite,krki20,2022-06-09_20h30.19.038,ratings,2022.1.1,iPhone,62.5
-1.273086753,7.028,0.732989343,5.903,0,166,166,329,1,468_8b69b13120daebadd8a4a3166e1419f2404395cba231307a4efa9fde_circblurext.jpg,2.031744,0.2539684,circularblurringext,krki20,2022-06-09_20h30.19.038,ratings,2022.1.1,iPhone,62.5
-1.273086753,2.258,-0.424362251,4.943,0,167,167,171,1,365_45a719cabbc9aa308c4fcb30d529489c6966ac4073874af84f665c61_blur.jpg,2.507936,-1.968252,blurring,krki20,2022-06-09_20h30.19.038,ratings,2022.1.1,iPhone,62.5
0.270048705,278.578,0.192891932,279.028,0,168,168,159,1,358_157f8ac929713531a15b1ecf115e7b659cb90e83d675251e368d165f_blur.jpg,-3.777776,-0.571428,blurring,krki20,2022-06-09_20h30.19.038,ratings,2022.1.1,iPhone,62.5
-0.810146116,4.312,-0.810146116,3.696,0,169,169,93,1,258_d26019382777d2159a974a7654923e71598135ce2cd710cea1f92865_blur.jpg,3.497684,-0.61104,blurring,krki20,2022-06-09_20h30.19.038,ratings,2022.1.1,iPhone,62.5
-2.430438347,3.655,2.044654482,4.254,0,170,170,497,1,824_b1d91cc824ce0d3d383d3147da88d3d6dbaf6be918bab79e3ec8f501_circblurext.jpg,-3.645176,-1.432784,circularblurringext,krki20,2022-06-09_20h30.19.038,ratings,2022.1.1,iPhone,62.5
-0.115735159,5.993,-1.118773207,6.977,0,171,171,225,1,403_57ac47f43882fc031a6067b1a388c0b2cbe8708dcbd2ff1019932eff_blur.jpg,-3.333332,-1.396824,blurring,krki20,2022-06-09_20h30.19.038,ratings,2022.1.1,iPhone,62.5
-2.50759512,2.544,1.118773207,3.361,0,172,172,278,1,440_9bf7e8609729bf888835168834da6c3ff30b75d0d4f36e2ee6918bcc_edges.jpg,-2.284164,2.710028,edges,krki20,2022-06-09_20h30.19.038,ratings,2022.1.1,iPhone,62.5
1.350243526,2.712,1.041616434,3.247,0,173,173,502,1,854_081a8409e4d6d10923b2dedcc16a3fca405fcd602e55a20d84cac69d_circblurint.jpg,3.088264,1.21538,circularblurringint,krki20,2022-06-09_20h30.19.038,ratings,2022.1.1,iPhone,62.5
-1.118773207,3.744,-0.65583257,4.076,0,174,174,513,1,858_2f6539ee36aba48c38dc716d4f7c3ae93367d6ddf23ab41745d4172c_blur.jpg,0.0623832,0.176752,blurring,krki20,2022-06-09_20h30.19.038,ratings,2022.1.1,iPhone,62.5
-2.276124801,2.263,0.347205478,3.046,0,175,175,570,1,1039_d64da8480fc6e94dcdc513237d600570ae0b9fe48795ac6a8b2d29a7_orig.jpg,-2.507936,-1.142856,original,krki20,2022-06-09_20h30.19.038,ratings,2022.1.1,iPhone,62.5
-1.19592998,3.626,-1.19592998,3.277,0,176,176,569,1,1037_e2eb929a6de79a63ce6cfe5321fcb74a203b134e4094932d90b01d99_circblurext.jpg,2.651956,0.0,circularblurringext,krki20,2022-06-09_20h30.19.038,ratings,2022.1.1,iPhone,62.5
-0.424362251,5.21,-2.121811255,10.06,0,177,177,90,1,258_d26019382777d2159a974a7654923e71598135ce2cd710cea1f92865_orig.jpg,3.497684,-0.61104,original,krki20,2022-06-09_20h30.19.038,ratings,2022.1.1,iPhone,62.5
-0.501519024,1.983,-1.350243526,2.428,0,178,178,393,1,663_aaf52107fe3a86392530d88b34e86f9d2b6820714cad98d1e3c2cb67_blur.jpg,2.58766,0.0918696,blurring,krki20,2022-06-09_20h30.19.038,ratings,2022.1.1,iPhone,62.5
1.581713845,4.213,-2.970535757,3.249,0,179,179,19,1,48_2cc936b2483ab2944c9158e163342b874ef6c1492fd8fca08c0e096e_bw.jpg,-1.264224,-0.779604,blackwhite,krki20,2022-06-09_20h30.19.038,ratings,2022.1.1,iPhone,62.5
-0.732989343,2.746,0.038578386,4.513,0,180,180,21,1,48_2cc936b2483ab2944c9158e163342b874ef6c1492fd8fca08c0e096e_blur.jpg,-1.264224,-0.779604,blurring,krki20,2022-06-09_20h30.19.038,ratings,2022.1.1,iPhone,62.5
0.192891932,4.629,0.115735159,7.799,0,181,181,512,1,858_2f6539ee36aba48c38dc716d4f7c3ae93367d6ddf23ab41745d4172c_edges.jpg,0.0623832,0.176752,edges,krki20,2022-06-09_20h30.19.038,ratings,2022.1.1,iPhone,62.5
0.578675797,8.242,-3.202006076,2.708,0,182,182,205,1,381_5935a9f9796adce2f1539af6c75bcdc0c80d847a2ce9b77cf59b7672_bw.jpg,-1.327432,-0.442476,blackwhite,krki20,2022-06-09_20h30.19.038,ratings,2022.1.1,iPhone,62.5
1.273086753,3.313,-2.893378984,3.879,0,183,183,61,1,156_08e8cf8f04630e9213e610580de73f51572d1d589878648700bae4dc_bw.jpg,2.222224,0.0,blackwhite,krki20,2022-06-09_20h30.19.038,ratings,2022.1.1,iPhone,62.5
-0.964459661,2.66,-0.964459661,3.011,0,184,184,443,1,700_59cb565f134f1afd066d7b6d936c6511b7cb76de0e9cbb5ce15124ad_circblurext.jpg,0.0,0.0,circularblurringext,krki20,2022-06-09_20h30.19.038,ratings,2022.1.1,iPhone,62.5
-2.430438347,2.046,-0.038578386,3.711,0,185,185,122,1,347_27f0e47c2722605b950ccf9fa900f78271e4c3c874064ab5dacac160_edges.jpg,1.838948,0.3097172,edges,krki20,2022-06-09_20h30.19.038,ratings,2022.1.1,iPhone,62.5
-1.581713845,2.96,0.65583257,3.43,0,186,186,46,1,92_5d20d78a8e57e628c6930676473a4e0a485e715841efd6286c660020_circblurint.jpg,2.126984,0.0,circularblurringint,krki20,2022-06-09_20h30.19.038,ratings,2022.1.1,iPhone,62.5
-2.276124801,6.125,0.578675797,4.359,0,187,187,325,1,468_8b69b13120daebadd8a4a3166e1419f2404395cba231307a4efa9fde_bw.jpg,2.031744,0.2539684,blackwhite,krki20,2022-06-09_20h30.19.038,ratings,2022.1.1,iPhone,62.5
-1.427400299,2.447,-0.270048705,4.627,0,188,188,94,1,258_d26019382777d2159a974a7654923e71598135ce2cd710cea1f92865_circblurint.jpg,3.497684,-0.61104,circularblurringint,krki20,2022-06-09_20h30.19.038,ratings,2022.1.1,iPhone,62.5
-0.115735159,2.396,-2.50759512,3.177,0,189,189,519,1,860_05c4e22518a30d3d2add458a8fc6488f87b9b02dd8e385ded939f025_blur.jpg,1.955092,0.3097172,blurring,krki20,2022-06-09_20h30.19.038,ratings,2022.1.1,iPhone,62.5
1.19592998,2.442,0.501519024,5.175,0,190,190,114,1,332_4d584229bdae2e1782f77f0e953e528f13c3dfa79b4b94736c0310fa_orig.jpg,3.157348,0.483092,original,krki20,2022-06-09_20h30.19.038,ratings,2022.1.1,iPhone,62.5
0.424362251,76.267,-2.353281574,78.48,0,191,191,252,1,416_5eb54976bb41ce2a6d129ef985f792e716f010fb9b69b15f50f5d2db_orig.jpg,-2.58766,2.602972,original,krki20,2022-06-09_20h30.19.038,ratings,2022.1.1,iPhone,62.5
-1.967497709,2.093,0.192891932,4.094,0,192,192,292,1,442_7449d79dae5d652af9b2429872cabdef938646ba024db2f431b3b28d_circblurint.jpg,1.619048,0.126984,circularblurringint,krki20,2022-06-09_20h30.19.038,ratings,2022.1.1,iPhone,62.5
-1.427400299,3.512,-0.038578386,3.028,0,193,193,83,1,242_85283f6935a89812ab229dcad9ba184529c9242ac3106d768ecf3ab3_circblurext.jpg,2.14918,-0.2949852,circularblurringext,krki20,2022-06-09_20h30.19.038,ratings,2022.1.1,iPhone,62.5
-0.964459661,1.982,-1.118773207,2.348,0,194,194,345,1,494_5c6c3b85a2734a43c24bfe337d42ffcc82b7347227804d01c784cef4_blur.jpg,0.03871468,0.0,blurring,krki20,2022-06-09_20h30.19.038,ratings,2022.1.1,iPhone,62.5
0.732989343,3.31,-2.353281574,3.71,0,195,195,457,1,720_483c541c48959a597fcf44320941afaf8b7695105f90d65b5f6b30f2_bw.jpg,2.158732,-0.2539684,blackwhite,krki20,2022-06-09_20h30.19.038,ratings,2022.1.1,iPhone,62.5
-0.887302889,4.128,-2.353281574,3.545,0,196,196,553,1,1014_a5c212ca979d482cf94c2db7697aba75620391a64b030ab7ad2bbecf_bw.jpg,-3.174604,-1.374372,blackwhite,krki20,2022-06-09_20h30.19.038,ratings,2022.1.1,iPhone,62.5
1.350243526,3.792,-2.661908666,3.008,0,197,197,66,1,172_c641c6c56ca6b594b773084e1363c852abdb65f988d7ff802ee503f2_orig.jpg,0.379572,0.01725328,original,krki20,2022-06-09_20h30.19.038,ratings,2022.1.1,iPhone,62.5
-1.890340936,2.277,1.581713845,2.761,0,198,198,160,1,358_157f8ac929713531a15b1ecf115e7b659cb90e83d675251e368d165f_circblurint.jpg,-3.777776,-0.571428,circularblurringint,krki20,2022-06-09_20h30.19.038,ratings,2022.1.1,iPhone,62.5
0.270048705,19.076,-2.044654482,19.928,0,199,199,430,1,694_7a14b8ab7c564dcb0f628c4de7f6cb54e4c5f6601f774bf167641c37_circblurint.jpg,1.819588,0.116144,circularblurringint,krki20,2022-06-09_20h30.19.038,ratings,2022.1.1,iPhone,62.5
-0.810146116,1.824,-0.347205478,2.427,0,200,200,172,1,365_45a719cabbc9aa308c4fcb30d529489c6966ac4073874af84f665c61_circblurint.jpg,2.507936,-1.968252,circularblurringint,krki20,2022-06-09_20h30.19.038,ratings,2022.1.1,iPhone,62.5
-0.501519024,2.676,-0.732989343,3.026,0,201,201,371,1,616_05a637f5281666f53d4e2ef69351485fc21d629b37ee2006b2076eb6_circblurext.jpg,-2.380952,-0.832364,circularblurringext,krki20,2022-06-09_20h30.19.038,ratings,2022.1.1,iPhone,62.5
0.192891932,29.48,-1.504557072,29.896,0,202,202,9,1,28_6318543b74eeb646a1735477ebc023fdc9ac3849bc0db1957c272a26_blur.jpg,2.811244,-0.74584,blurring,krki20,2022-06-09_20h30.19.038,ratings,2022.1.1,iPhone,62.5
-1.041616434,5.413,-1.118773207,6.314,0,203,203,47,1,92_5d20d78a8e57e628c6930676473a4e0a485e715841efd6286c660020_circblurext.jpg,2.126984,0.0,circularblurringext,krki20,2022-06-09_20h30.19.038,ratings,2022.1.1,iPhone,62.5
-1.967497709,4.61,-0.65583257,6.664,0,204,204,556,1,1014_a5c212ca979d482cf94c2db7697aba75620391a64b030ab7ad2bbecf_circblurint.jpg,-3.174604,-1.374372,circularblurringint,krki20,2022-06-09_20h30.19.038,ratings,2022.1.1,iPhone,62.5
-2.661908666,2.228,-0.424362251,4.246,0,205,205,242,1,411_adfd0d5782129756321ff671d0cfb712528504c66c863df11aabd1e7_edges.jpg,-3.392332,-1.369576,edges,krki20,2022-06-09_20h30.19.038,ratings,2022.1.1,iPhone,62.5
1.041616434,55.09,-2.893378984,55.587,0,206,206,43,1,92_5d20d78a8e57e628c6930676473a4e0a485e715841efd6286c660020_bw.jpg,2.126984,0.0,blackwhite,krki20,2022-06-09_20h30.19.038,ratings,2022.1.1,iPhone,62.5
-0.887302889,2.977,-2.661908666,3.391,0,207,207,258,1,416_8a1f874e0057d67a4e6955865ba88b2d8ce2c8b4469589307687a723_orig.jpg,-1.753336,3.088264,original,krki20,2022-06-09_20h30.19.038,ratings,2022.1.1,iPhone,62.5
0.270048705,2.525,-0.65583257,3.625,0,208,208,269,1,431_ab5a1dbbe9292ac7f74e276cdabcd372e2c1f852ff34bf7cc6646ef8_circblurext.jpg,3.102584,0.354334,circularblurringext,krki20,2022-06-09_20h30.19.038,ratings,2022.1.1,iPhone,62.5
-1.658870618,16.876,-1.736027391,17.677,0,209,209,261,1,416_8a1f874e0057d67a4e6955865ba88b2d8ce2c8b4469589307687a723_blur.jpg,-1.753336,3.088264,blurring,krki20,2022-06-09_20h30.19.038,ratings,2022.1.1,iPhone,62.5
-0.65583257,1.591,-0.038578386,4.707,0,210,210,353,1,498_305b74cdc4784d9d25e72724302e5402def70177ea31ae7e25fab66b_circblurext.jpg,3.04762,-0.444444,circularblurringext,krki20,2022-06-09_20h30.19.038,ratings,2022.1.1,iPhone,62.5
1.658870618,1.576,-2.970535757,2.492,0,211,211,264,1,431_ab5a1dbbe9292ac7f74e276cdabcd372e2c1f852ff34bf7cc6646ef8_orig.jpg,3.102584,0.354334,original,krki20,2022-06-09_20h30.19.038,ratings,2022.1.1,iPhone,62.5
0.192891932,2.56,-0.192891932,4.094,0,212,212,70,1,172_c641c6c56ca6b594b773084e1363c852abdb65f988d7ff802ee503f2_circblurint.jpg,0.379572,0.01725328,circularblurringint,krki20,2022-06-09_20h30.19.038,ratings,2022.1.1,iPhone,62.5
-0.964459661,3.026,0.964459661,5.826,0,213,213,404,1,686_6745b57686ad5d1bd6cf3e7ed5bc0243a154f8939e88e30321dfcfdb_edges.jpg,-1.523808,3.650792,edges,krki20,2022-06-09_20h30.19.038,ratings,2022.1.1,iPhone,62.5
-2.661908666,48.565,0.501519024,49.565,0,214,214,436,1,694_f80f33613b268beffd6c044537cf3b44a84683d6e889bc37b8e9c34b_circblurint.jpg,-0.3785616,3.34728,circularblurringint,krki20,2022-06-09_20h30.19.038,ratings,2022.1.1,iPhone,62.5
-0.810146116,1.627,-0.810146116,1.893,0,215,215,428,1,694_7a14b8ab7c564dcb0f628c4de7f6cb54e4c5f6601f774bf167641c37_edges.jpg,1.819588,0.116144,edges,krki20,2022-06-09_20h30.19.038,ratings,2022.1.1,iPhone,62.5
-1.118773207,1.409,-0.810146116,1.659,0,216,216,489,1,818_877aae033c31e3bbca4486321a5307f87cf53c576c546462d3daf194_blur.jpg,-1.277584,0.619436,blurring,krki20,2022-06-09_20h30.19.038,ratings,2022.1.1,iPhone,62.5
-0.115735159,2.292,-0.192891932,3.276,0,217,217,0,1,13_771f4fcf0a212d25d6a78565e7f34cc5ddd823e7afbdc77ef063326e_orig.jpg,2.190476,0.0,original,krki20,2022-06-09_20h30.19.038,ratings,2022.1.1,iPhone,62.5
-0.115735159,2.478,-0.810146116,2.927,0,218,218,237,1,410_9633c4ff6e8888fcfca59a60ca86e9606d3e0736500a254101bdf295_blur.jpg,-0.3677892,2.981028,blurring,krki20,2022-06-09_20h30.19.038,ratings,2022.1.1,iPhone,62.5
0.65583257,5.361,-2.50759512,3.661,0,219,219,130,1,349_18d92ef5c21ca70a3dd237aad251594e1688bbe01d8cff37b89c46b8_circblurint.jpg,-2.74874,-1.258228,circularblurringint,krki20,2022-06-09_20h30.19.038,ratings,2022.1.1,iPhone,62.5
-2.50759512,1.527,1.19592998,1.91,0,220,220,163,1,361_b5541309527dc3c2422f45a95ebb0ed32005e6fe10d0489a1ff1fbdc_bw.jpg,-3.987612,-0.2516452,blackwhite,krki20,2022-06-09_20h30.19.038,ratings,2022.1.1,iPhone,62.5
-0.810146116,3.624,-2.198968028,5.274,0,221,221,589,1,1228_557412d34d6a70b7c5d222e030aa485b351a4574e8ba1a3112d1d13d_bw.jpg,2.137444,0.703464,blackwhite,krki20,2022-06-09_20h30.19.038,ratings,2022.1.1,iPhone,62.5
-1.967497709,1.666,-0.115735159,2.162,0,222,222,396,1,683_a004ad18331da968da5debdd15e1447dd7748750af0bc6c57b844200_orig.jpg,-2.91956,2.466524,original,krki20,2022-06-09_20h30.19.038,ratings,2022.1.1,iPhone,62.5
-2.276124801,2.041,0.501519024,2.741,0,223,223,524,1,877_cab3efed0c9ff4552037df6c1ea4ea9713f915c94592a14dbf2799da_edges.jpg,3.174604,0.3174604,edges,krki20,2022-06-09_20h30.19.038,ratings,2022.1.1,iPhone,62.5
-0.501519024,1.56,-3.202006076,2.143,0,224,224,106,1,284_cdcbd54fc995081ac95c8b2c37a19cebb341f61a8eb268cee1623492_circblurint.jpg,-1.015872,2.095236,circularblurringint,krki20,2022-06-09_20h30.19.038,ratings,2022.1.1,iPhone,62.5
-0.038578386,48.048,-2.50759512,47.181,0,225,225,222,1,403_57ac47f43882fc031a6067b1a388c0b2cbe8708dcbd2ff1019932eff_orig.jpg,-3.333332,-1.396824,original,krki20,2022-06-09_20h30.19.038,ratings,2022.1.1,iPhone,62.5
0.424362251,1.459,-2.353281574,1.825,0,226,226,378,1,640_0ddb4981a5f5842ed5b4f7ef941be53779189df5e718b1fc5475ad80_orig.jpg,2.571428,-1.873016,original,krki20,2022-06-09_20h30.19.038,ratings,2022.1.1,iPhone,62.5
-1.890340936,1.308,0.424362251,1.659,0,227,227,298,1,449_9c1e990a3480e5b51430fe76b0188e69ba2468fd6a866b88b2d0dd75_circblurint.jpg,0.095238,0.03174604,circularblurringint,krki20,2022-06-09_20h30.19.038,ratings,2022.1.1,iPhone,62.5
-2.276124801,4.345,-0.115735159,4.945,0,228,228,89,1,243_beddb302dcb21071d88c8d2cab07002050d36b3001ef28f89389fa56_circblurext.jpg,-0.3450656,-0.2070392,circularblurringext,krki20,2022-06-09_20h30.19.038,ratings,2022.1.1,iPhone,62.5
-0.732989343,6.012,-2.50759512,3.178,0,229,229,476,1,748_e519892faa7c772a0afaf9eeff36cf0e411574027ab3d9aa4947a048_edges.jpg,-1.813112,3.307432,edges,krki20,2022-06-09_20h30.19.038,ratings,2022.1.1,iPhone,62.5
-0.964459661,1.496,-0.732989343,2.097,0,230,230,230,1,407_578d31d32e806706dde2563213f130b90e621abfed0e47ecabd85d27_edges.jpg,3.5873,-0.444444,edges,krki20,2022-06-09_20h30.19.038,ratings,2022.1.1,iPhone,62.5
-0.347205478,5.675,0.270048705,5.968,0,231,231,528,1,915_dc9fd40a3b5d64a180833a7bac86e7556c24f681f473fe255e41f936_orig.jpg,-3.09294,-0.918696,original,krki20,2022-06-09_20h30.19.038,ratings,2022.1.1,iPhone,62.5
-0.810146116,1.471,0.65583257,1.754,0,232,232,101,1,267_792043debad81ce271cec5b3c3bd9d264efc13f362bec9c7a3f72fe7_circblurext.jpg,1.980616,0.2107036,circularblurringext,krki20,2022-06-09_20h30.19.038,ratings,2022.1.1,iPhone,62.5
-2.893378984,1.693,1.041616434,2.394,0,233,233,167,1,361_b5541309527dc3c2422f45a95ebb0ed32005e6fe10d0489a1ff1fbdc_circblurext.jpg,-3.987612,-0.2516452,circularblurringext,krki20,2022-06-09_20h30.19.038,ratings,2022.1.1,iPhone,62.5
-1.118773207,4.542,-1.736027391,6.009,0,234,234,419,1,692_7d7eaf20e6de8956f0fca7500ace97a8599aa8b605a7d690cdb28724_circblurext.jpg,-2.063492,-1.26984,circularblurringext,krki20,2022-06-09_20h30.19.038,ratings,2022.1.1,iPhone,62.5
-2.430438347,11.36,-1.350243526,11.928,0,235,235,240,1,411_adfd0d5782129756321ff671d0cfb712528504c66c863df11aabd1e7_orig.jpg,-3.392332,-1.369576,original,krki20,2022-06-09_20h30.19.038,ratings,2022.1.1,iPhone,62.5
0.810146116,1.808,-1.967497709,2.608,0,236,236,203,1,380_34772591c787182a37724027eac6948ebc9d4064f6a601d23b923b8e_circblurext.jpg,2.222224,-0.063492,circularblurringext,krki20,2022-06-09_20h30.19.038,ratings,2022.1.1,iPhone,62.5
-1.273086753,2.094,-0.887302889,2.611,0,237,237,260,1,416_8a1f874e0057d67a4e6955865ba88b2d8ce2c8b4469589307687a723_edges.jpg,-1.753336,3.088264,edges,krki20,2022-06-09_20h30.19.038,ratings,2022.1.1,iPhone,62.5
-1.19592998,23.96,-0.732989343,24.227,0,238,238,437,1,694_f80f33613b268beffd6c044537cf3b44a84683d6e889bc37b8e9c34b_circblurext.jpg,-0.3785616,3.34728,circularblurringext,krki20,2022-06-09_20h30.19.038,ratings,2022.1.1,iPhone,62.5
-1.041616434,3.075,-1.350243526,4.675,0,239,239,598,1,1239_cee00457f4cfb76a407b12fd5ad714d440a4614c1e5467ee16caf618_circblurint.jpg,-0.03174604,0.190476,circularblurringint,krki20,2022-06-09_20h30.19.038,ratings,2022.1.1,iPhone,62.5
-0.964459661,3.974,-1.890340936,3.291,0,240,240,140,1,353_44e285740cb41818482ac93fc5fbd72c18029444a1d7506c9fc053e7_edges.jpg,-3.232676,-0.87108,edges,krki20,2022-06-09_20h30.19.038,ratings,2022.1.1,iPhone,62.5
-0.115735159,1.509,-1.658870618,2.375,0,241,241,530,1,915_dc9fd40a3b5d64a180833a7bac86e7556c24f681f473fe255e41f936_edges.jpg,-3.09294,-0.918696,edges,krki20,2022-06-09_20h30.19.038,ratings,2022.1.1,iPhone,62.5
-1.813184164,7.259,0.732989343,7.945,0,242,242,492,1,824_b1d91cc824ce0d3d383d3147da88d3d6dbaf6be918bab79e3ec8f501_orig.jpg,-3.645176,-1.432784,original,krki20,2022-06-09_20h30.19.038,ratings,2022.1.1,iPhone,62.5
1.041616434,3.658,-2.353281574,4.675,0,243,243,301,1,453_54f106fd1d4b65fa4aa347407127fc30d49f791e81aee3a0bbe44489_bw.jpg,2.222224,0.0,blackwhite,krki20,2022-06-09_20h30.19.038,ratings,2022.1.1,iPhone,62.5
-1.273086753,4.474,0.270048705,3.107,0,244,244,86,1,243_beddb302dcb21071d88c8d2cab07002050d36b3001ef28f89389fa56_edges.jpg,-0.3450656,-0.2070392,edges,krki20,2022-06-09_20h30.19.038,ratings,2022.1.1,iPhone,62.5
1.890340936,5.375,-2.353281574,4.792,0,245,245,8,1,28_6318543b74eeb646a1735477ebc023fdc9ac3849bc0db1957c272a26_edges.jpg,2.811244,-0.74584,edges,krki20,2022-06-09_20h30.19.038,ratings,2022.1.1,iPhone,62.5
0.192891932,8.794,0.501519024,3.842,0,246,246,192,1,379_eeaa6d9bf5a4ef205dc48bc505cf3a7f24ea86e99af9b371e03602a7_orig.jpg,-0.3926308,2.88936,original,krki20,2022-06-09_20h30.19.038,ratings,2022.1.1,iPhone,62.5
-1.118773207,3.16,-0.732989343,3.493,0,247,247,435,1,694_f80f33613b268beffd6c044537cf3b44a84683d6e889bc37b8e9c34b_blur.jpg,-0.3785616,3.34728,blurring,krki20,2022-06-09_20h30.19.038,ratings,2022.1.1,iPhone,62.5
0.578675797,1.712,-2.044654482,2.278,0,248,248,550,1,1010_06d15f44b979c086561137000ec070ba4cd479856f92840a7850b2bf_circblurint.jpg,0.189786,-0.189786,circularblurringint,krki20,2022-06-09_20h30.19.038,ratings,2022.1.1,iPhone,62.5
-0.115735159,2.408,0.65583257,1.809,0,249,249,559,1,1022_cf035e583d41a856836f8b0ae314ecbe79dffd9e40ef6a08cc26028f_bw.jpg,-0.2516452,3.05846,blackwhite,krki20,2022-06-09_20h30.19.038,ratings,2022.1.1,iPhone,62.5
0.578675797,2.782,-2.970535757,2.032,0,250,250,391,1,663_aaf52107fe3a86392530d88b34e86f9d2b6820714cad98d1e3c2cb67_bw.jpg,2.58766,0.0918696,blackwhite,krki20,2022-06-09_20h30.19.038,ratings,2022.1.1,iPhone,62.5
-0.887302889,1.383,-0.732989343,1.694,0,251,251,87,1,243_beddb302dcb21071d88c8d2cab07002050d36b3001ef28f89389fa56_blur.jpg,-0.3450656,-0.2070392,blurring,krki20,2022-06-09_20h30.19.038,ratings,2022.1.1,iPhone,62.5
0.887302889,1.491,-2.353281574,1.808,0,252,252,41,1,82_43f4d5aec7c2e5bd495473f6708a0f2d47c9fe34e1fe9436646cb036_circblurext.jpg,2.022756,0.505688,circularblurringext,krki20,2022-06-09_20h30.19.038,ratings,2022.1.1,iPhone,62.5
-0.810146116,115.22,-1.041616434,115.485,0,253,253,207,1,381_5935a9f9796adce2f1539af6c75bcdc0c80d847a2ce9b77cf59b7672_blur.jpg,-1.327432,-0.442476,blurring,krki20,2022-06-09_20h30.19.038,ratings,2022.1.1,iPhone,62.5
-2.198968028,1.914,0.424362251,2.895,0,254,254,286,1,440_dc6413e2b65369ee2587f4d85621742fe4ca87392d0a8ad2ea7d94e3_circblurint.jpg,-3.016216,1.69404,circularblurringint,krki20,2022-06-09_20h30.19.038,ratings,2022.1.1,iPhone,62.5
-1.19592998,8.411,-1.19592998,7.828,0,255,255,248,1,414_0187bdf7007109b487865b6a9d388997a6817acf052a6a7cdd5b39d9_edges.jpg,-2.786708,-1.133056,edges,krki20,2022-06-09_20h30.19.038,ratings,2022.1.1,iPhone,62.5
0.501519024,3.668,-3.124849303,1.753,0,256,256,426,1,694_7a14b8ab7c564dcb0f628c4de7f6cb54e4c5f6601f774bf167641c37_orig.jpg,1.819588,0.116144,original,krki20,2022-06-09_20h30.19.038,ratings,2022.1.1,iPhone,62.5
0.115735159,2.793,-0.192891932,3.217,0,257,257,146,1,354_e46c3ec6fb00773f64f2bcd212385f253c389808fe724b7cf8611051_edges.jpg,2.018292,0.0,edges,krki20,2022-06-09_20h30.19.038,ratings,2022.1.1,iPhone,62.5
0.964459661,2.375,-0.038578386,3.909,0,258,258,445,1,709_69c01dcde028a2a1a913f1a2a5026ae1748484f75c89217a040c6791_bw.jpg,1.432444,-0.01935732,blackwhite,krki20,2022-06-09_20h30.19.038,ratings,2022.1.1,iPhone,62.5
-1.504557072,4.446,1.118773207,1.996,0,259,259,357,1,500_3b520c7f352afa1a9f8c07e56cc0588cdc04d25ff6e7b602b5e280cb_blur.jpg,-0.8328,3.11766,blurring,krki20,2022-06-09_20h30.19.038,ratings,2022.1.1,iPhone,62.5
-0.501519024,2.308,-2.970535757,1.842,0,260,260,548,1,1010_06d15f44b979c086561137000ec070ba4cd479856f92840a7850b2bf_edges.jpg,0.189786,-0.189786,edges,krki20,2022-06-09_20h30.19.038,ratings,2022.1.1,iPhone,62.5
-1.427400299,1.665,-0.732989343,2.525,0,261,261,425,1,692_e3e3bf88684fbbcdb9849a4147f9e2fcd39b0f083554a829aca4e9fa_circblurext.jpg,-0.44522,3.135888,circularblurringext,krki20,2022-06-09_20h30.19.038,ratings,2022.1.1,iPhone,62.5
-0.115735159,3.812,-2.121811255,4.729,0,262,262,317,1,459_46e25de472bb056cb470716d30937415f7344bfc4354d6eb710d8c9f_circblurext.jpg,0.03174604,0.0,circularblurringext,krki20,2022-06-09_20h30.19.038,ratings,2022.1.1,iPhone,62.5
-2.584751893,1.877,0.501519024,2.378,0,263,263,302,1,453_54f106fd1d4b65fa4aa347407127fc30d49f791e81aee3a0bbe44489_edges.jpg,2.222224,0.0,edges,krki20,2022-06-09_20h30.19.038,ratings,2022.1.1,iPhone,62.5
1.041616434,1.278,-2.198968028,1.612,0,264,264,578,1,1061_665178b9cb0bc869cc2e2b68def4838db04e66f9531098fb75875a09_edges.jpg,0.3492064,-0.3174604,edges,krki20,2022-06-09_20h30.19.038,ratings,2022.1.1,iPhone,62.5
-1.427400299,4.394,-0.347205478,6.028,0,265,265,293,1,442_7449d79dae5d652af9b2429872cabdef938646ba024db2f431b3b28d_circblurext.jpg,1.619048,0.126984,circularblurringext,krki20,2022-06-09_20h30.19.038,ratings,2022.1.1,iPhone,62.5
-1.041616434,2.162,-0.501519024,4.562,0,266,266,314,1,459_46e25de472bb056cb470716d30937415f7344bfc4354d6eb710d8c9f_edges.jpg,0.03174604,0.0,edges,krki20,2022-06-09_20h30.19.038,ratings,2022.1.1,iPhone,62.5
-1.890340936,2.225,-0.347205478,11.626,0,267,267,282,1,440_dc6413e2b65369ee2587f4d85621742fe4ca87392d0a8ad2ea7d94e3_orig.jpg,-3.016216,1.69404,original,krki20,2022-06-09_20h30.19.038,ratings,2022.1.1,iPhone,62.5
-1.041616434,1.396,-1.118773207,1.662,0,268,268,219,1,396_208259ea431d47bb7f3946213eb099834eb119756ce304ad473d4d9f_blur.jpg,2.857144,-0.3809524,blurring,krki20,2022-06-09_20h30.19.038,ratings,2022.1.1,iPhone,62.5
-2.739065439,1.74,0.270048705,2.274,0,269,269,362,1,508_a7a9519cdc7aad6844030f4e6cd96cffd1b9c49b71e20ea52789bda2_edges.jpg,-3.000388,-1.29694,edges,krki20,2022-06-09_20h30.19.038,ratings,2022.1.1,iPhone,62.5
0.964459661,10.344,-1.736027391,7.628,0,270,270,220,1,396_208259ea431d47bb7f3946213eb099834eb119756ce304ad473d4d9f_circblurint.jpg,2.857144,-0.3809524,circularblurringint,krki20,2022-06-09_20h30.19.038,ratings,2022.1.1,iPhone,62.5
-0.732989343,15.012,-3.04769253,2.844,0,271,271,235,1,410_9633c4ff6e8888fcfca59a60ca86e9606d3e0736500a254101bdf295_bw.jpg,-0.3677892,2.981028,blackwhite,krki20,2022-06-09_20h30.19.038,ratings,2022.1.1,iPhone,62.5
0.964459661,1.676,-2.198968028,2.009,0,272,272,337,1,492_a1a4d288d3bc486c83c3b6a835c42891989f5ba781633932298a7676_bw.jpg,3.406892,-0.44522,blackwhite,krki20,2022-06-09_20h30.19.038,ratings,2022.1.1,iPhone,62.5
1.890340936,2.343,-3.356319622,1.759,0,273,273,199,1,380_34772591c787182a37724027eac6948ebc9d4064f6a601d23b923b8e_bw.jpg,2.222224,-0.063492,blackwhite,krki20,2022-06-09_20h30.19.038,ratings,2022.1.1,iPhone,62.5
-0.810146116,1.845,0.424362251,3.044,0,274,274,511,1,858_2f6539ee36aba48c38dc716d4f7c3ae93367d6ddf23ab41745d4172c_bw.jpg,0.0623832,0.176752,blackwhite,krki20,2022-06-09_20h30.19.038,ratings,2022.1.1,iPhone,62.5
-2.50759512,1.426,0.65583257,1.877,0,275,275,274,1,434_ba36d91204d7e578001f6a545d7501e65d209554def5a3c8b7583825_circblurint.jpg,-3.523808,1.428572,circularblurringint,krki20,2022-06-09_20h30.19.038,ratings,2022.1.1,iPhone,62.5
0.501519024,2.076,-0.347205478,3.258,0,276,276,584,1,1225_59c67a821456f2cce3e5acf66d7f00076bd02caffc984c1eb0df794e_edges.jpg,-0.444444,3.809524,edges,krki20,2022-06-09_20h30.19.038,ratings,2022.1.1,iPhone,62.5
-1.118773207,1.628,-0.578675797,1.869,0,277,277,111,1,293_3dfdfafc0c6a54b2da7453750ac281f7718c0b3337b0a74c4563d6bd_blur.jpg,-2.574524,2.632596,blurring,krki20,2022-06-09_20h30.19.038,ratings,2022.1.1,iPhone,62.5
-2.121811255,2.275,0.887302889,2.693,0,278,278,161,1,358_157f8ac929713531a15b1ecf115e7b659cb90e83d675251e368d165f_circblurext.jpg,-3.777776,-0.571428,circularblurringext,krki20,2022-06-09_20h30.19.038,ratings,2022.1.1,iPhone,62.5
-0.347205478,1.641,-1.967497709,2.191,0,279,279,341,1,492_a1a4d288d3bc486c83c3b6a835c42891989f5ba781633932298a7676_circblurext.jpg,3.406892,-0.44522,circularblurringext,krki20,2022-06-09_20h30.19.038,ratings,2022.1.1,iPhone,62.5
-1.427400299,1.695,0.038578386,2.379,0,280,280,4,1,13_771f4fcf0a212d25d6a78565e7f34cc5ddd823e7afbdc77ef063326e_circblurint.jpg,2.190476,0.0,circularblurringint,krki20,2022-06-09_20h30.19.038,ratings,2022.1.1,iPhone,62.5
1.118773207,1.345,-2.198968028,1.728,0,281,281,368,1,616_05a637f5281666f53d4e2ef69351485fc21d629b37ee2006b2076eb6_edges.jpg,-2.380952,-0.832364,edges,krki20,2022-06-09_20h30.19.038,ratings,2022.1.1,iPhone,62.5
0.270048705,3.445,-2.970535757,4.211,0,282,282,153,1,355_00a76f54934d36566dd0e7b091b8aa6a56d8e6b32d349aa578a10b45_blur.jpg,2.910052,0.3439152,blurring,krki20,2022-06-09_20h30.19.038,ratings,2022.1.1,iPhone,62.5
-0.038578386,5.959,0.115735159,4.575,0,283,283,195,1,379_eeaa6d9bf5a4ef205dc48bc505cf3a7f24ea86e99af9b371e03602a7_blur.jpg,-0.3926308,2.88936,blurring,krki20,2022-06-09_20h30.19.038,ratings,2022.1.1,iPhone,62.5
2.121811255,1.461,0.732989343,11.912,0,284,284,408,1,687_e3b018945792a574962235c88c553b7c318c75eec2596478e8a7b877_orig.jpg,3.63918,-0.42586,original,krki20,2022-06-09_20h30.19.038,ratings,2022.1.1,iPhone,62.5
0.65583257,1.511,-0.887302889,39.718,0,285,285,120,1,347_27f0e47c2722605b950ccf9fa900f78271e4c3c874064ab5dacac160_orig.jpg,1.838948,0.3097172,original,krki20,2022-06-09_20h30.19.038,ratings,2022.1.1,iPhone,62.5
-0.424362251,25.866,-0.501519024,24.033,0,286,286,366,1,616_05a637f5281666f53d4e2ef69351485fc21d629b37ee2006b2076eb6_orig.jpg,-2.380952,-0.832364,original,krki20,2022-06-09_20h30.19.038,ratings,2022.1.1,iPhone,62.5
-0.059528239,718.441,-0.059528239,724.357,0,287,287,500,1,854_081a8409e4d6d10923b2dedcc16a3fca405fcd602e55a20d84cac69d_edges.jpg,3.088264,1.21538,edges,krki20,2022-06-09_20h30.19.038,ratings,2022.1.1,iPhone,62.5
-1.011980058,3.785,-0.615125133,4.101,0,288,288,158,1,358_157f8ac929713531a15b1ecf115e7b659cb90e83d675251e368d165f_edges.jpg,-3.777776,-0.571428,edges,krki20,2022-06-09_20h30.19.038,ratings,2022.1.1,iPhone,62.5
0.892923581,2.188,-2.797827219,2.704,0,289,289,265,1,431_ab5a1dbbe9292ac7f74e276cdabcd372e2c1f852ff34bf7cc6646ef8_bw.jpg,3.102584,0.354334,blackwhite,krki20,2022-06-09_20h30.19.038,ratings,2022.1.1,iPhone,62.5
-2.00411737,1.404,0.972294566,1.786,0,290,290,571,1,1039_d64da8480fc6e94dcdc513237d600570ae0b9fe48795ac6a8b2d29a7_bw.jpg,-2.507936,-1.142856,blackwhite,krki20,2022-06-09_20h30.19.038,ratings,2022.1.1,iPhone,62.5
0.615125133,6.52,-1.805689907,3.537,0,291,291,342,1,494_5c6c3b85a2734a43c24bfe337d42ffcc82b7347227804d01c784cef4_orig.jpg,0.03871468,0.0,original,krki20,2022-06-09_20h30.19.038,ratings,2022.1.1,iPhone,62.5
-0.773867103,2.121,-0.853238088,4.337,0,292,292,138,1,353_44e285740cb41818482ac93fc5fbd72c18029444a1d7506c9fc053e7_orig.jpg,-3.232676,-0.87108,original,krki20,2022-06-09_20h30.19.038,ratings,2022.1.1,iPhone,62.5
-1.68663343,4.604,-0.138899224,3.22,0,293,293,64,1,156_08e8cf8f04630e9213e610580de73f51572d1d589878648700bae4dc_circblurint.jpg,2.222224,0.0,circularblurringint,krki20,2022-06-09_20h30.19.038,ratings,2022.1.1,iPhone,62.5
-1.091351043,2.787,-0.972294566,2.32,0,294,294,389,1,646_577760d718dab44c6f04d77408c5644a120065ce07a9503957d0850a_circblurext.jpg,-2.690668,2.61324,circularblurringext,krki20,2022-06-09_20h30.19.038,ratings,2022.1.1,iPhone,62.5
-0.138899224,9.657,-2.123173847,8.191,0,295,295,209,1,381_5935a9f9796adce2f1539af6c75bcdc0c80d847a2ce9b77cf59b7672_circblurext.jpg,-1.327432,-0.442476,circularblurringext,krki20,2022-06-09_20h30.19.038,ratings,2022.1.1,iPhone,62.5
1.051665551,1.472,-2.520028772,1.989,0,296,296,504,1,855_66d893451dfd1e7615132071c6c8a82b02dc2b37781cd89400883b26_orig.jpg,2.69484,0.2143624,original,krki20,2022-06-09_20h30.19.038,ratings,2022.1.1,iPhone,62.5
-2.043802862,4.171,0.654810626,3.471,0,297,297,346,1,494_5c6c3b85a2734a43c24bfe337d42ffcc82b7347227804d01c784cef4_circblurint.jpg,0.03871468,0.0,circularblurringint,krki20,2022-06-09_20h30.19.038,ratings,2022.1.1,iPhone,62.5
-0.178584716,6.204,-2.16285934,3.087,0,298,298,241,1,411_adfd0d5782129756321ff671d0cfb712528504c66c863df11aabd1e7_bw.jpg,-3.392332,-1.369576,blackwhite,krki20,2022-06-09_20h30.19.038,ratings,2022.1.1,iPhone,62.5
-2.083488355,3.487,1.131036535,4.02,0,299,299,535,1,986_a77edb21e78bc3a6aa7406517824596b3496ad6c657b6befb84cf370_bw.jpg,-3.906316,-0.60496,blackwhite,krki20,2022-06-09_20h30.19.038,ratings,2022.1.1,iPhone,62.5
0.099213731,1.668,-1.964431877,2.034,0,300,300,218,1,396_208259ea431d47bb7f3946213eb099834eb119756ce304ad473d4d9f_edges.jpg,2.857144,-0.3809524,edges,krki20,2022-06-09_20h30.19.038,ratings,2022.1.1,iPhone,62.5
-0.892923581,1.454,-0.813552596,1.721,0,301,301,305,1,453_54f106fd1d4b65fa4aa347407127fc30d49f791e81aee3a0bbe44489_circblurext.jpg,2.222224,0.0,circularblurringext,krki20,2022-06-09_20h30.19.038,ratings,2022.1.1,iPhone,62.5
-0.853238088,1.22,-0.892923581,1.47,0,302,302,508,1,855_66d893451dfd1e7615132071c6c8a82b02dc2b37781cd89400883b26_circblurint.jpg,2.69484,0.2143624,circularblurringint,krki20,2022-06-09_20h30.19.038,ratings,2022.1.1,iPhone,62.5
-1.567576953,9.137,0.138899224,8.003,0,303,303,1,1,13_771f4fcf0a212d25d6a78565e7f34cc5ddd823e7afbdc77ef063326e_bw.jpg,2.190476,0.0,blackwhite,krki20,2022-06-09_20h30.19.038,ratings,2022.1.1,iPhone,62.5
-0.932609073,2.17,-1.051665551,2.569,0,304,304,95,1,258_d26019382777d2159a974a7654923e71598135ce2cd710cea1f92865_circblurext.jpg,3.497684,-0.61104,circularblurringext,krki20,2022-06-09_20h30.19.038,ratings,2022.1.1,iPhone,62.5
-1.051665551,40.59,-1.805689907,41.689,0,305,305,271,1,434_ba36d91204d7e578001f6a545d7501e65d209554def5a3c8b7583825_bw.jpg,-3.523808,1.428572,blackwhite,krki20,2022-06-09_20h30.19.038,ratings,2022.1.1,iPhone,62.5
-1.091351043,2.485,-1.091351043,2.019,0,306,306,144,1,354_e46c3ec6fb00773f64f2bcd212385f253c389808fe724b7cf8611051_orig.jpg,2.018292,0.0,original,krki20,2022-06-09_20h30.19.038,ratings,2022.1.1,iPhone,62.5
-1.52789146,4.302,0.019842746,2.935,0,307,307,251,1,414_0187bdf7007109b487865b6a9d388997a6817acf052a6a7cdd5b39d9_circblurext.jpg,-2.786708,-1.133056,circularblurringext,krki20,2022-06-09_20h30.19.038,ratings,2022.1.1,iPhone,62.5
-1.329463998,3.92,-0.337326686,3.003,0,308,308,299,1,449_9c1e990a3480e5b51430fe76b0188e69ba2468fd6a866b88b2d0dd75_circblurext.jpg,0.095238,0.03174604,circularblurringext,krki20,2022-06-09_20h30.19.038,ratings,2022.1.1,iPhone,62.5
0.456383163,22.056,-0.019842746,3.438,0,309,309,354,1,500_3b520c7f352afa1a9f8c07e56cc0588cdc04d25ff6e7b602b5e280cb_orig.jpg,-0.8328,3.11766,original,krki20,2022-06-09_20h30.19.038,ratings,2022.1.1,iPhone,62.5
-2.00411737,2.521,-0.059528239,3.471,0,310,310,29,1,59_8568373b727f29d67ba6ce4c360dd918c8b08b13495fca56bdda5e82_circblurext.jpg,2.064896,0.505688,circularblurringext,krki20,2022-06-09_20h30.19.038,ratings,2022.1.1,iPhone,62.5
-0.853238088,1.255,-0.138899224,2.838,0,311,311,147,1,354_e46c3ec6fb00773f64f2bcd212385f253c389808fe724b7cf8611051_blur.jpg,2.018292,0.0,blurring,krki20,2022-06-09_20h30.19.038,ratings,2022.1.1,iPhone,62.5
-1.091351043,1.454,-0.813552596,1.771,0,312,312,25,1,59_8568373b727f29d67ba6ce4c360dd918c8b08b13495fca56bdda5e82_bw.jpg,2.064896,0.505688,blackwhite,krki20,2022-06-09_20h30.19.038,ratings,2022.1.1,iPhone,62.5
-0.734181611,29.038,-1.131036535,29.287,0,313,313,257,1,416_5eb54976bb41ce2a6d129ef985f792e716f010fb9b69b15f50f5d2db_circblurext.jpg,-2.58766,2.602972,circularblurringext,krki20,2022-06-09_20h30.19.038,ratings,2022.1.1,iPhone,62.5
0.734181611,3.937,-0.257955701,5.803,0,314,314,150,1,355_00a76f54934d36566dd0e7b091b8aa6a56d8e6b32d349aa578a10b45_orig.jpg,2.910052,0.3439152,original,krki20,2022-06-09_20h30.19.038,ratings,2022.1.1,iPhone,62.5
-2.043802862,3.235,0.496068656,2.336,0,315,315,136,1,349_8809a67686d34844c915d7700e2ea72ad1c02ae232ae0d3cc0e458d4_circblurint.jpg,-3.619048,-0.2857144,circularblurringint,krki20,2022-06-09_20h30.19.038,ratings,2022.1.1,iPhone,62.5
1.964431877,1.67,0.257955701,3.57,0,316,316,102,1,284_cdcbd54fc995081ac95c8b2c37a19cebb341f61a8eb268cee1623492_orig.jpg,-1.015872,2.095236,original,krki20,2022-06-09_20h30.19.038,ratings,2022.1.1,iPhone,62.5
-1.051665551,3.288,0.138899224,2.721,0,317,317,178,1,368_6507b94d7d0199f14efd3706db30c9c44b96085f84e9cc7792e3e0ae_circblurint.jpg,1.959544,0.400336,circularblurringint,krki20,2022-06-09_20h30.19.038,ratings,2022.1.1,iPhone,62.5
-1.8453754,1.638,-0.892923581,2.688,0,318,318,387,1,646_577760d718dab44c6f04d77408c5644a120065ce07a9503957d0850a_blur.jpg,-2.690668,2.61324,blurring,krki20,2022-06-09_20h30.19.038,ratings,2022.1.1,iPhone,62.5
0.853238088,3.687,-2.00411737,2.987,0,319,319,96,1,267_792043debad81ce271cec5b3c3bd9d264efc13f362bec9c7a3f72fe7_orig.jpg,1.980616,0.2107036,original,krki20,2022-06-09_20h30.19.038,ratings,2022.1.1,iPhone,62.5
-1.21040752,2.738,0.099213731,4.971,0,320,320,243,1,411_adfd0d5782129756321ff671d0cfb712528504c66c863df11aabd1e7_blur.jpg,-3.392332,-1.369576,blurring,krki20,2022-06-09_20h30.19.038,ratings,2022.1.1,iPhone,62.5
1.567576953,4.67,-0.099213731,3.87,0,321,321,590,1,1228_557412d34d6a70b7c5d222e030aa485b351a4574e8ba1a3112d1d13d_edges.jpg,2.137444,0.703464,edges,krki20,2022-06-09_20h30.19.038,ratings,2022.1.1,iPhone,62.5
-0.892923581,2.454,-1.091351043,3.254,0,322,322,141,1,353_44e285740cb41818482ac93fc5fbd72c18029444a1d7506c9fc053e7_blur.jpg,-3.232676,-0.87108,blurring,krki20,2022-06-09_20h30.19.038,ratings,2022.1.1,iPhone,62.5
-2.559714264,3.537,-0.853238088,8.854,0,323,323,12,1,39_2fafccaa4dc69045a05845f59c6b3cd2edcf7e0e0c108b24e553afe0_orig.jpg,2.022756,0.463548,original,krki20,2022-06-09_20h30.19.038,ratings,2022.1.1,iPhone,62.5
-1.289778505,1.554,-0.932609073,1.236,0,324,324,543,1,1005_b980c0747d20935bc63cc27a9e05ce2ff5bae98f859872ec48edd7f5_blur.jpg,3.428572,-0.476192,blurring,krki20,2022-06-09_20h30.19.038,ratings,2022.1.1,iPhone,62.5
-1.091351043,2.256,-1.011980058,2.521,0,325,325,285,1,440_dc6413e2b65369ee2587f4d85621742fe4ca87392d0a8ad2ea7d94e3_blur.jpg,-3.016216,1.69404,blurring,krki20,2022-06-09_20h30.19.038,ratings,2022.1.1,iPhone,62.5
-2.16285934,7.405,0.178584716,3.305,0,326,326,188,1,369_c99797771115d7627d4abe3415f814497288f91a7be1a04c17c776b9_edges.jpg,3.619824,-0.174216,edges,krki20,2022-06-09_20h30.19.038,ratings,2022.1.1,iPhone,62.5
-1.964431877,4.787,0.218270209,5.703,0,327,327,372,1,620_9674719009d75dcfeaed7f15932c43e1fd1af5e25d47b8aadd61efe2_orig.jpg,-0.561364,1.142084,original,krki20,2022-06-09_20h30.19.038,ratings,2022.1.1,iPhone,62.5
-1.051665551,2.038,-0.813552596,2.322,0,328,328,473,1,741_2b218fb015e3da83db73cacdb52e61e0c2534c1fe255bb1c5c74d47f_circblurext.jpg,3.140096,0.448584,circularblurringext,krki20,2022-06-09_20h30.19.038,ratings,2022.1.1,iPhone,62.5
1.448520475,3.92,0.575439641,7.32,0,329,329,193,1,379_eeaa6d9bf5a4ef205dc48bc505cf3a7f24ea86e99af9b371e03602a7_bw.jpg,-0.3926308,2.88936,blackwhite,krki20,2022-06-09_20h30.19.038,ratings,2022.1.1,iPhone,62.5
-0.218270209,22.672,-1.8453754,20.906,0,330,330,350,1,498_305b74cdc4784d9d25e72724302e5402def70177ea31ae7e25fab66b_edges.jpg,3.04762,-0.444444,edges,krki20,2022-06-09_20h30.19.038,ratings,2022.1.1,iPhone,62.5
-0.892923581,5.387,-1.131036535,7.187,0,331,331,518,1,860_05c4e22518a30d3d2add458a8fc6488f87b9b02dd8e385ded939f025_edges.jpg,1.955092,0.3097172,edges,krki20,2022-06-09_20h30.19.038,ratings,2022.1.1,iPhone,62.5
-0.257955701,4.621,-2.16285934,2.654,0,332,332,369,1,616_05a637f5281666f53d4e2ef69351485fc21d629b37ee2006b2076eb6_blur.jpg,-2.380952,-0.832364,blurring,krki20,2022-06-09_20h30.19.038,ratings,2022.1.1,iPhone,62.5
-0.575439641,3.522,-1.726318923,2.989,0,333,333,349,1,498_305b74cdc4784d9d25e72724302e5402def70177ea31ae7e25fab66b_bw.jpg,3.04762,-0.444444,blackwhite,krki20,2022-06-09_20h30.19.038,ratings,2022.1.1,iPhone,62.5
-1.646947938,5.705,-0.337326686,4.888,0,334,334,377,1,620_9674719009d75dcfeaed7f15932c43e1fd1af5e25d47b8aadd61efe2_circblurext.jpg,-0.561364,1.142084,circularblurringext,krki20,2022-06-09_20h30.19.038,ratings,2022.1.1,iPhone,62.5
-0.932609073,3.07,-0.892923581,3.387,0,335,335,275,1,434_ba36d91204d7e578001f6a545d7501e65d209554def5a3c8b7583825_circblurext.jpg,-3.523808,1.428572,circularblurringext,krki20,2022-06-09_20h30.19.038,ratings,2022.1.1,iPhone,62.5
-1.726318923,4.655,-0.099213731,7.806,0,336,336,196,1,379_eeaa6d9bf5a4ef205dc48bc505cf3a7f24ea86e99af9b371e03602a7_circblurint.jpg,-0.3926308,2.88936,circularblurringint,krki20,2022-06-09_20h30.19.038,ratings,2022.1.1,iPhone,62.5
-0.694496118,1.871,-0.654810626,2.205,0,337,337,183,1,369_98db62a1bdabfd1bc551180da6658005b461585cd21614633cf76470_blur.jpg,2.190476,-0.03174604,blurring,krki20,2022-06-09_20h30.19.038,ratings,2022.1.1,iPhone,62.5
-1.52789146,143.144,-0.456383163,144.811,0,338,338,376,1,620_9674719009d75dcfeaed7f15932c43e1fd1af5e25d47b8aadd61efe2_circblurint.jpg,-0.561364,1.142084,circularblurringint,krki20,2022-06-09_20h30.19.038,ratings,2022.1.1,iPhone,62.5
-0.932609073,1.936,-0.575439641,2.187,0,339,339,100,1,267_792043debad81ce271cec5b3c3bd9d264efc13f362bec9c7a3f72fe7_circblurint.jpg,1.980616,0.2107036,circularblurringint,krki20,2022-06-09_20h30.19.038,ratings,2022.1.1,iPhone,62.5
-1.924746385,12.571,-0.853238088,13.038,0,340,340,455,1,716_2ab64478147184c4df720a52cf621875addc9007cb2967e4a9a88909_circblurext.jpg,2.428484,0.0,circularblurringext,krki20,2022-06-09_20h30.19.038,ratings,2022.1.1,iPhone,62.5
0.178584716,3.787,-2.520028772,2.836,0,341,341,517,1,860_05c4e22518a30d3d2add458a8fc6488f87b9b02dd8e385ded939f025_bw.jpg,1.955092,0.3097172,blackwhite,krki20,2022-06-09_20h30.19.038,ratings,2022.1.1,iPhone,62.5
-0.892923581,3.371,-0.932609073,3.604,0,342,342,567,1,1037_e2eb929a6de79a63ce6cfe5321fcb74a203b134e4094932d90b01d99_blur.jpg,2.651956,0.0,blurring,krki20,2022-06-09_20h30.19.038,ratings,2022.1.1,iPhone,62.5
-0.734181611,63.75,-1.250093013,59.45,0,343,343,506,1,855_66d893451dfd1e7615132071c6c8a82b02dc2b37781cd89400883b26_edges.jpg,2.69484,0.2143624,edges,krki20,2022-06-09_20h30.19.038,ratings,2022.1.1,iPhone,62.5
0.178584716,2.92,0.019842746,3.887,0,344,344,107,1,284_cdcbd54fc995081ac95c8b2c37a19cebb341f61a8eb268cee1623492_circblurext.jpg,-1.015872,2.095236,circularblurringext,krki20,2022-06-09_20h30.19.038,ratings,2022.1.1,iPhone,62.5
1.448520475,4.703,-2.916883697,2.786,0,345,345,547,1,1010_06d15f44b979c086561137000ec070ba4cd479856f92840a7850b2bf_bw.jpg,0.189786,-0.189786,blackwhite,krki20,2022-06-09_20h30.19.038,ratings,2022.1.1,iPhone,62.5
-1.21040752,4.403,-0.257955701,5.536,0,346,346,272,1,434_ba36d91204d7e578001f6a545d7501e65d209554def5a3c8b7583825_edges.jpg,-3.523808,1.428572,edges,krki20,2022-06-09_20h30.19.038,ratings,2022.1.1,iPhone,62.5
-0.734181611,3.338,-0.892923581,3.071,0,347,347,522,1,877_cab3efed0c9ff4552037df6c1ea4ea9713f915c94592a14dbf2799da_orig.jpg,3.174604,0.3174604,original,krki20,2022-06-09_20h30.19.038,ratings,2022.1.1,iPhone,62.5
-1.52789146,3.371,-0.019842746,152.184,0,348,348,60,1,156_08e8cf8f04630e9213e610580de73f51572d1d589878648700bae4dc_orig.jpg,2.222224,0.0,original,krki20,2022-06-09_20h30.19.038,ratings,2022.1.1,iPhone,62.5
-0.575439641,1.951,-1.131036535,2.802,0,349,349,239,1,410_9633c4ff6e8888fcfca59a60ca86e9606d3e0736500a254101bdf295_circblurext.jpg,-0.3677892,2.981028,circularblurringext,krki20,2022-06-09_20h30.19.038,ratings,2022.1.1,iPhone,62.5
1.8453754,6.17,-0.019842746,4.854,0,350,350,466,1,736_bb85db1bcda8eb34299aa5791ac65a0a7c343266eb2d6e6e328ec0e1_circblurint.jpg,3.650792,-0.03174604,circularblurringint,krki20,2022-06-09_20h30.19.038,ratings,2022.1.1,iPhone,62.5
-1.607262445,2.703,-0.218270209,4.003,0,351,351,50,1,112_b6a4ce721c2e42943d7d8b168751d74cd2f372b1cd4fed5a4404faec_edges.jpg,2.107036,0.505688,edges,krki20,2022-06-09_20h30.19.038,ratings,2022.1.1,iPhone,62.5
-1.051665551,1.821,-0.813552596,2.121,0,352,352,417,1,692_7d7eaf20e6de8956f0fca7500ace97a8599aa8b605a7d690cdb28724_blur.jpg,-2.063492,-1.26984,blurring,krki20,2022-06-09_20h30.19.038,ratings,2022.1.1,iPhone,62.5
1.131036535,3.886,-2.797827219,3.235,0,353,353,410,1,687_e3b018945792a574962235c88c553b7c318c75eec2596478e8a7b877_edges.jpg,3.63918,-0.42586,edges,krki20,2022-06-09_20h30.19.038,ratings,2022.1.1,iPhone,62.5
-1.8453754,3.504,0.337326686,6.154,0,354,354,480,1,759_95e1c46ed9a337414d5c8eada8fa8b9632e18751f5ce6ed587806e91_orig.jpg,2.126984,0.0,original,krki20,2022-06-09_20h30.19.038,ratings,2022.1.1,iPhone,62.5
-0.813552596,1.77,-0.853238088,2.103,0,355,355,316,1,459_46e25de472bb056cb470716d30937415f7344bfc4354d6eb710d8c9f_circblurint.jpg,0.03174604,0.0,circularblurringint,krki20,2022-06-09_20h30.19.038,ratings,2022.1.1,iPhone,62.5
1.805689907,25.105,1.726318923,25.789,0,356,356,444,1,709_69c01dcde028a2a1a913f1a2a5026ae1748484f75c89217a040c6791_orig.jpg,1.432444,-0.01935732,original,krki20,2022-06-09_20h30.19.038,ratings,2022.1.1,iPhone,62.5
-1.68663343,6.254,0.059528239,3.171,0,357,357,585,1,1225_59c67a821456f2cce3e5acf66d7f00076bd02caffc984c1eb0df794e_blur.jpg,-0.444444,3.809524,blurring,krki20,2022-06-09_20h30.19.038,ratings,2022.1.1,iPhone,62.5
-1.051665551,2.904,-0.972294566,3.204,0,358,358,340,1,492_a1a4d288d3bc486c83c3b6a835c42891989f5ba781633932298a7676_circblurint.jpg,3.406892,-0.44522,circularblurringint,krki20,2022-06-09_20h30.19.038,ratings,2022.1.1,iPhone,62.5
-1.051665551,1.738,-0.972294566,2.005,0,359,359,154,1,355_00a76f54934d36566dd0e7b091b8aa6a56d8e6b32d349aa578a10b45_circblurint.jpg,2.910052,0.3439152,circularblurringint,krki20,2022-06-09_20h30.19.038,ratings,2022.1.1,iPhone,62.5
0.892923581,2.987,-2.00411737,2.304,0,360,360,211,1,394_8e3a0cb945144d53bd1ace04b6256237ed9dcbbd9cb83f8a4886b0e6_bw.jpg,-2.593884,2.651956,blackwhite,krki20,2022-06-09_20h30.19.038,ratings,2022.1.1,iPhone,62.5
-2.16285934,21.139,0.734181611,20.389,0,361,361,334,1,482_a1cd28915c5044c018195ab0fff10dcc95e385246b045a7cd4463ff7_circblurint.jpg,-3.361852,-1.555612,circularblurringint,krki20,2022-06-09_20h30.19.038,ratings,2022.1.1,iPhone,62.5
1.488205968,5.603,1.289778505,6.787,0,362,362,276,1,440_9bf7e8609729bf888835168834da6c3ff30b75d0d4f36e2ee6918bcc_orig.jpg,-2.284164,2.710028,original,krki20,2022-06-09_20h30.19.038,ratings,2022.1.1,iPhone,62.5
-1.8453754,4.156,1.170722028,3.105,0,363,363,537,1,986_a77edb21e78bc3a6aa7406517824596b3496ad6c657b6befb84cf370_blur.jpg,-3.906316,-0.60496,blurring,krki20,2022-06-09_20h30.19.038,ratings,2022.1.1,iPhone,62.5
-0.853238088,4.136,-0.813552596,5.87,0,364,364,24,1,59_8568373b727f29d67ba6ce4c360dd918c8b08b13495fca56bdda5e82_orig.jpg,2.064896,0.505688,original,krki20,2022-06-09_20h30.19.038,ratings,2022.1.1,iPhone,62.5
-1.131036535,1.784,-0.853238088,2.034,0,365,365,442,1,700_59cb565f134f1afd066d7b6d936c6511b7cb76de0e9cbb5ce15124ad_circblurint.jpg,0.0,0.0,circularblurringint,krki20,2022-06-09_20h30.19.038,ratings,2022.1.1,iPhone,62.5
-0.932609073,4.071,0.059528239,2.886,0,366,366,176,1,368_6507b94d7d0199f14efd3706db30c9c44b96085f84e9cc7792e3e0ae_edges.jpg,1.959544,0.400336,edges,krki20,2022-06-09_20h30.19.038,ratings,2022.1.1,iPhone,62.5
-0.932609073,1.27,-0.734181611,1.521,0,367,367,213,1,394_8e3a0cb945144d53bd1ace04b6256237ed9dcbbd9cb83f8a4886b0e6_blur.jpg,-2.593884,2.651956,blurring,krki20,2022-06-09_20h30.19.038,ratings,2022.1.1,iPhone,62.5
-1.885060892,6.02,0.099213731,5.388,0,368,368,88,1,243_beddb302dcb21071d88c8d2cab07002050d36b3001ef28f89389fa56_circblurint.jpg,-0.3450656,-0.2070392,circularblurringint,krki20,2022-06-09_20h30.19.038,ratings,2022.1.1,iPhone,62.5
1.885060892,2.539,-2.440657787,4.588,0,369,369,126,1,349_18d92ef5c21ca70a3dd237aad251594e1688bbe01d8cff37b89c46b8_orig.jpg,-2.74874,-1.258228,original,krki20,2022-06-09_20h30.19.038,ratings,2022.1.1,iPhone,62.5
-2.281915817,5.337,0.377012178,2.488,0,370,370,133,1,349_8809a67686d34844c915d7700e2ea72ad1c02ae232ae0d3cc0e458d4_bw.jpg,-3.619048,-0.2857144,blackwhite,krki20,2022-06-09_20h30.19.038,ratings,2022.1.1,iPhone,62.5
-0.813552596,5.785,-0.773867103,6.152,0,371,371,74,1,236_f645730e1eb06155418c9a571329cc7fa320654fcaaedf1048b5cc11_edges.jpg,2.253968,0.0,edges,krki20,2022-06-09_20h30.19.038,ratings,2022.1.1,iPhone,62.5
-0.734181611,1.237,-0.734181611,1.521,0,372,372,227,1,403_57ac47f43882fc031a6067b1a388c0b2cbe8708dcbd2ff1019932eff_circblurext.jpg,-3.333332,-1.396824,circularblurringext,krki20,2022-06-09_20h30.19.038,ratings,2022.1.1,iPhone,62.5
0.892923581,16.655,-3.988391993,13.272,0,373,373,438,1,700_59cb565f134f1afd066d7b6d936c6511b7cb76de0e9cbb5ce15124ad_orig.jpg,0.0,0.0,original,krki20,2022-06-09_20h30.19.038,ratings,2022.1.1,iPhone,62.5
-0.932609073,1.837,-0.773867103,2.104,0,374,374,110,1,293_3dfdfafc0c6a54b2da7453750ac281f7718c0b3337b0a74c4563d6bd_edges.jpg,-2.574524,2.632596,edges,krki20,2022-06-09_20h30.19.038,ratings,2022.1.1,iPhone,62.5
-2.043802862,3.354,-0.059528239,3.67,0,375,375,56,1,137_0e6a04243c0a42a5e2528a2d181255ca2a4b7bd6e7978c5c2059c69f_edges.jpg,-0.95238,2.095236,edges,krki20,2022-06-09_20h30.19.038,ratings,2022.1.1,iPhone,62.5
-1.488205968,2.904,0.178584716,1.954,0,376,376,280,1,440_9bf7e8609729bf888835168834da6c3ff30b75d0d4f36e2ee6918bcc_circblurint.jpg,-2.284164,2.710028,circularblurringint,krki20,2022-06-09_20h30.19.038,ratings,2022.1.1,iPhone,62.5
-1.051665551,1.386,-0.734181611,1.637,0,377,377,561,1,1022_cf035e583d41a856836f8b0ae314ecbe79dffd9e40ef6a08cc26028f_blur.jpg,-0.2516452,3.05846,blurring,krki20,2022-06-09_20h30.19.038,ratings,2022.1.1,iPhone,62.5
-1.21040752,15.138,-0.932609073,15.954,0,378,378,563,1,1022_cf035e583d41a856836f8b0ae314ecbe79dffd9e40ef6a08cc26028f_circblurext.jpg,-0.2516452,3.05846,circularblurringext,krki20,2022-06-09_20h30.19.038,ratings,2022.1.1,iPhone,62.5
0.972294566,3.97,-3.075625667,2.719,0,379,379,505,1,855_66d893451dfd1e7615132071c6c8a82b02dc2b37781cd89400883b26_bw.jpg,2.69484,0.2143624,blackwhite,krki20,2022-06-09_20h30.19.038,ratings,2022.1.1,iPhone,62.5
2.242230325,2.386,2.281915817,3.269,0,380,380,180,1,369_98db62a1bdabfd1bc551180da6658005b461585cd21614633cf76470_orig.jpg,2.190476,-0.03174604,original,krki20,2022-06-09_20h30.19.038,ratings,2022.1.1,iPhone,62.5
1.408834983,2.537,-3.194682144,1.787,0,381,381,427,1,694_7a14b8ab7c564dcb0f628c4de7f6cb54e4c5f6601f774bf167641c37_bw.jpg,1.819588,0.116144,blackwhite,krki20,2022-06-09_20h30.19.038,ratings,2022.1.1,iPhone,62.5
0.615125133,2.254,-1.52789146,4.771,0,382,382,189,1,369_c99797771115d7627d4abe3415f814497288f91a7be1a04c17c776b9_blur.jpg,3.619824,-0.174216,blurring,krki20,2022-06-09_20h30.19.038,ratings,2022.1.1,iPhone,62.5
0.734181611,3.836,-3.075625667,2.886,0,383,383,121,1,347_27f0e47c2722605b950ccf9fa900f78271e4c3c874064ab5dacac160_bw.jpg,1.838948,0.3097172,blackwhite,krki20,2022-06-09_20h30.19.038,ratings,2022.1.1,iPhone,62.5
1.408834983,4.003,-2.361286802,3.354,0,384,384,336,1,492_a1a4d288d3bc486c83c3b6a835c42891989f5ba781633932298a7676_orig.jpg,3.406892,-0.44522,original,krki20,2022-06-09_20h30.19.038,ratings,2022.1.1,iPhone,62.5
0.019842746,2.303,-1.051665551,3.003,0,385,385,53,1,112_b6a4ce721c2e42943d7d8b168751d74cd2f372b1cd4fed5a4404faec_circblurext.jpg,2.107036,0.505688,circularblurringext,krki20,2022-06-09_20h30.19.038,ratings,2022.1.1,iPhone,62.5
-0.257955701,5.136,1.011980058,1.786,0,386,386,534,1,986_a77edb21e78bc3a6aa7406517824596b3496ad6c657b6befb84cf370_orig.jpg,-3.906316,-0.60496,original,krki20,2022-06-09_20h30.19.038,ratings,2022.1.1,iPhone,62.5
-0.892923581,2.237,-0.972294566,1.387,0,387,387,566,1,1037_e2eb929a6de79a63ce6cfe5321fcb74a203b134e4094932d90b01d99_edges.jpg,2.651956,0.0,edges,krki20,2022-06-09_20h30.19.038,ratings,2022.1.1,iPhone,62.5
-2.043802862,1.837,0.654810626,2.237,0,388,388,527,1,877_cab3efed0c9ff4552037df6c1ea4ea9713f915c94592a14dbf2799da_circblurext.jpg,3.174604,0.3174604,circularblurringext,krki20,2022-06-09_20h30.19.038,ratings,2022.1.1,iPhone,62.5
-2.043802862,1.754,0.178584716,2.136,0,389,389,398,1,683_a004ad18331da968da5debdd15e1447dd7748750af0bc6c57b844200_edges.jpg,-2.91956,2.466524,edges,krki20,2022-06-09_20h30.19.038,ratings,2022.1.1,iPhone,62.5
0.773867103,3.654,0.099213731,2.721,0,390,390,18,1,48_2cc936b2483ab2944c9158e163342b874ef6c1492fd8fca08c0e096e_orig.jpg,-1.264224,-0.779604,original,krki20,2022-06-09_20h30.19.038,ratings,2022.1.1,iPhone,62.5
-0.654810626,3.471,0.019842746,2.154,0,391,391,580,1,1061_665178b9cb0bc869cc2e2b68def4838db04e66f9531098fb75875a09_circblurint.jpg,0.3492064,-0.3174604,circularblurringint,krki20,2022-06-09_20h30.19.038,ratings,2022.1.1,iPhone,62.5
-0.218270209,3.971,-0.019842746,2.604,0,392,392,249,1,414_0187bdf7007109b487865b6a9d388997a6817acf052a6a7cdd5b39d9_blur.jpg,-2.786708,-1.133056,blurring,krki20,2022-06-09_20h30.19.038,ratings,2022.1.1,iPhone,62.5
-1.885060892,7.271,-0.813552596,5.905,0,393,393,421,1,692_e3e3bf88684fbbcdb9849a4147f9e2fcd39b0f083554a829aca4e9fa_bw.jpg,-0.44522,3.135888,blackwhite,krki20,2022-06-09_20h30.19.038,ratings,2022.1.1,iPhone,62.5
1.448520475,5.419,-2.043802862,6.286,0,394,394,459,1,720_483c541c48959a597fcf44320941afaf8b7695105f90d65b5f6b30f2_blur.jpg,2.158732,-0.2539684,blurring,krki20,2022-06-09_20h30.19.038,ratings,2022.1.1,iPhone,62.5
0.892923581,5.636,-3.750279039,3.386,0,395,395,20,1,48_2cc936b2483ab2944c9158e163342b874ef6c1492fd8fca08c0e096e_edges.jpg,-1.264224,-0.779604,edges,krki20,2022-06-09_20h30.19.038,ratings,2022.1.1,iPhone,62.5
-0.416697671,2.204,-0.575439641,1.92,0,396,396,32,1,60_ad52063167538de24f94d7dfd04808cb94cf8f426c40871d2f126505_edges.jpg,2.158732,0.0,edges,krki20,2022-06-09_20h30.19.038,ratings,2022.1.1,iPhone,62.5
-1.36914949,5.237,1.924746385,3.237,0,397,397,331,1,482_a1cd28915c5044c018195ab0fff10dcc95e385246b045a7cd4463ff7_bw.jpg,-3.361852,-1.555612,blackwhite,krki20,2022-06-09_20h30.19.038,ratings,2022.1.1,iPhone,62.5
-1.885060892,7.338,0.694496118,6.672,0,398,398,363,1,508_a7a9519cdc7aad6844030f4e6cd96cffd1b9c49b71e20ea52789bda2_blur.jpg,-3.000388,-1.29694,blurring,krki20,2022-06-09_20h30.19.038,ratings,2022.1.1,iPhone,62.5
-1.646947938,4.771,1.766004415,5.905,0,399,399,330,1,482_a1cd28915c5044c018195ab0fff10dcc95e385246b045a7cd4463ff7_orig.jpg,-3.361852,-1.555612,original,krki20,2022-06-09_20h30.19.038,ratings,2022.1.1,iPhone,62.5
-0.932609073,2.103,-1.131036535,1.853,0,400,400,400,1,683_a004ad18331da968da5debdd15e1447dd7748750af0bc6c57b844200_circblurint.jpg,-2.91956,2.466524,circularblurringint,krki20,2022-06-09_20h30.19.038,ratings,2022.1.1,iPhone,62.5
-1.68663343,4.371,-0.138899224,2.921,0,401,401,270,1,434_ba36d91204d7e578001f6a545d7501e65d209554def5a3c8b7583825_orig.jpg,-3.523808,1.428572,original,krki20,2022-06-09_20h30.19.038,ratings,2022.1.1,iPhone,62.5
-0.575439641,64.341,1.68663343,2.92,0,402,402,162,1,361_b5541309527dc3c2422f45a95ebb0ed32005e6fe10d0489a1ff1fbdc_orig.jpg,-3.987612,-0.2516452,original,krki20,2022-06-09_20h30.19.038,ratings,2022.1.1,iPhone,62.5
0.972294566,4.555,-3.670908054,2.437,0,403,403,129,1,349_18d92ef5c21ca70a3dd237aad251594e1688bbe01d8cff37b89c46b8_blur.jpg,-2.74874,-1.258228,blurring,krki20,2022-06-09_20h30.19.038,ratings,2022.1.1,iPhone,62.5
2.083488355,1.37,1.805689907,2.837,0,404,404,10,1,28_6318543b74eeb646a1735477ebc023fdc9ac3849bc0db1957c272a26_circblurint.jpg,2.811244,-0.74584,circularblurringint,krki20,2022-06-09_20h30.19.038,ratings,2022.1.1,iPhone,62.5
-0.615125133,3.937,-0.853238088,4.221,0,405,405,383,1,640_0ddb4981a5f5842ed5b4f7ef941be53779189df5e718b1fc5475ad80_circblurext.jpg,2.571428,-1.873016,circularblurringext,krki20,2022-06-09_20h30.19.038,ratings,2022.1.1,iPhone,62.5
-1.011980058,0.969,-0.932609073,1.203,0,406,406,347,1,494_5c6c3b85a2734a43c24bfe337d42ffcc82b7347227804d01c784cef4_circblurext.jpg,0.03871468,0.0,circularblurringext,krki20,2022-06-09_20h30.19.038,ratings,2022.1.1,iPhone,62.5
-1.567576953,4.187,-0.654810626,5.555,0,407,407,179,1,368_6507b94d7d0199f14efd3706db30c9c44b96085f84e9cc7792e3e0ae_circblurext.jpg,1.959544,0.400336,circularblurringext,krki20,2022-06-09_20h30.19.038,ratings,2022.1.1,iPhone,62.5
1.766004415,4.404,-2.00411737,5.654,0,408,408,48,1,112_b6a4ce721c2e42943d7d8b168751d74cd2f372b1cd4fed5a4404faec_orig.jpg,2.107036,0.505688,original,krki20,2022-06-09_20h30.19.038,ratings,2022.1.1,iPhone,62.5
-0.853238088,1.572,-0.615125133,1.805,0,409,409,119,1,332_4d584229bdae2e1782f77f0e953e528f13c3dfa79b4b94736c0310fa_circblurext.jpg,3.157348,0.483092,circularblurringext,krki20,2022-06-09_20h30.19.038,ratings,2022.1.1,iPhone,62.5
-0.496068656,7.371,0.178584716,4.088,0,410,410,131,1,349_18d92ef5c21ca70a3dd237aad251594e1688bbe01d8cff37b89c46b8_circblurext.jpg,-2.74874,-1.258228,circularblurringext,krki20,2022-06-09_20h30.19.038,ratings,2022.1.1,iPhone,62.5
-0.932609073,3.938,-2.916883697,2.387,0,411,411,289,1,442_7449d79dae5d652af9b2429872cabdef938646ba024db2f431b3b28d_bw.jpg,1.619048,0.126984,blackwhite,krki20,2022-06-09_20h30.19.038,ratings,2022.1.1,iPhone,62.5
2.281915817,4.287,2.16285934,3.587,0,412,412,409,1,687_e3b018945792a574962235c88c553b7c318c75eec2596478e8a7b877_bw.jpg,3.63918,-0.42586,blackwhite,krki20,2022-06-09_20h30.19.038,ratings,2022.1.1,iPhone,62.5
-1.8453754,4.321,-1.091351043,5.053,0,413,413,452,1,716_2ab64478147184c4df720a52cf621875addc9007cb2967e4a9a88909_edges.jpg,2.428484,0.0,edges,krki20,2022-06-09_20h30.19.038,ratings,2022.1.1,iPhone,62.5
-1.805689907,3.336,0.178584716,2.653,0,414,414,332,1,482_a1cd28915c5044c018195ab0fff10dcc95e385246b045a7cd4463ff7_edges.jpg,-3.361852,-1.555612,edges,krki20,2022-06-09_20h30.19.038,ratings,2022.1.1,iPhone,62.5
-1.885060892,10.521,-0.019842746,84.759,0,415,415,266,1,431_ab5a1dbbe9292ac7f74e276cdabcd372e2c1f852ff34bf7cc6646ef8_edges.jpg,3.102584,0.354334,edges,krki20,2022-06-09_20h30.19.038,ratings,2022.1.1,iPhone,62.5
-1.766004415,8.538,0.019842746,7.956,0,416,416,536,1,986_a77edb21e78bc3a6aa7406517824596b3496ad6c657b6befb84cf370_edges.jpg,-3.906316,-0.60496,edges,krki20,2022-06-09_20h30.19.038,ratings,2022.1.1,iPhone,62.5
-0.892923581,1.838,-1.051665551,3.886,0,417,417,78,1,242_85283f6935a89812ab229dcad9ba184529c9242ac3106d768ecf3ab3_orig.jpg,2.14918,-0.2949852,original,krki20,2022-06-09_20h30.19.038,ratings,2022.1.1,iPhone,62.5
-0.734181611,1.271,-0.615125133,1.554,0,418,418,5,1,13_771f4fcf0a212d25d6a78565e7f34cc5ddd823e7afbdc77ef063326e_circblurext.jpg,2.190476,0.0,circularblurringext,krki20,2022-06-09_20h30.19.038,ratings,2022.1.1,iPhone,62.5
-0.416697671,2.936,-2.440657787,2.319,0,419,419,356,1,500_3b520c7f352afa1a9f8c07e56cc0588cdc04d25ff6e7b602b5e280cb_edges.jpg,-0.8328,3.11766,edges,krki20,2022-06-09_20h30.19.038,ratings,2022.1.1,iPhone,62.5
-0.496068656,83.098,-0.654810626,85.98,0,420,420,434,1,694_f80f33613b268beffd6c044537cf3b44a84683d6e889bc37b8e9c34b_edges.jpg,-0.3785616,3.34728,edges,krki20,2022-06-09_20h30.19.038,ratings,2022.1.1,iPhone,62.5
-0.257955701,2.999,-3.393109606,2.132,0,421,421,206,1,381_5935a9f9796adce2f1539af6c75bcdc0c80d847a2ce9b77cf59b7672_edges.jpg,-1.327432,-0.442476,edges,krki20,2022-06-09_20h30.19.038,ratings,2022.1.1,iPhone,62.5
-0.257955701,4.702,-0.257955701,2.769,0,422,422,594,1,1239_cee00457f4cfb76a407b12fd5ad714d440a4614c1e5467ee16caf618_orig.jpg,-0.03174604,0.190476,original,krki20,2022-06-09_20h30.19.038,ratings,2022.1.1,iPhone,62.5
-0.773867103,5.619,0.337326686,3.519,0,423,423,247,1,414_0187bdf7007109b487865b6a9d388997a6817acf052a6a7cdd5b39d9_bw.jpg,-2.786708,-1.133056,blackwhite,krki20,2022-06-09_20h30.19.038,ratings,2022.1.1,iPhone,62.5
-0.932609073,1.304,-0.694496118,1.569,0,424,424,69,1,172_c641c6c56ca6b594b773084e1363c852abdb65f988d7ff802ee503f2_blur.jpg,0.379572,0.01725328,blurring,krki20,2022-06-09_20h30.19.038,ratings,2022.1.1,iPhone,62.5
-2.00411737,5.736,0.218270209,6.436,0,425,425,449,1,709_69c01dcde028a2a1a913f1a2a5026ae1748484f75c89217a040c6791_circblurext.jpg,1.432444,-0.01935732,circularblurringext,krki20,2022-06-09_20h30.19.038,ratings,2022.1.1,iPhone,62.5
0.019842746,3.253,-2.083488355,2.553,0,426,426,99,1,267_792043debad81ce271cec5b3c3bd9d264efc13f362bec9c7a3f72fe7_blur.jpg,1.980616,0.2107036,blurring,krki20,2022-06-09_20h30.19.038,ratings,2022.1.1,iPhone,62.5
0.178584716,4.787,0.773867103,3.752,0,427,427,490,1,818_877aae033c31e3bbca4486321a5307f87cf53c576c546462d3daf194_circblurint.jpg,-1.277584,0.619436,circularblurringint,krki20,2022-06-09_20h30.19.038,ratings,2022.1.1,iPhone,62.5
0.773867103,5.102,-2.758141727,2.787,0,428,428,175,1,368_6507b94d7d0199f14efd3706db30c9c44b96085f84e9cc7792e3e0ae_bw.jpg,1.959544,0.400336,blackwhite,krki20,2022-06-09_20h30.19.038,ratings,2022.1.1,iPhone,62.5
-1.8453754,6.102,-0.773867103,2.686,0,429,429,461,1,720_483c541c48959a597fcf44320941afaf8b7695105f90d65b5f6b30f2_circblurext.jpg,2.158732,-0.2539684,circularblurringext,krki20,2022-06-09_20h30.19.038,ratings,2022.1.1,iPhone,62.5
0.615125133,4.635,-2.440657787,4.169,0,430,430,549,1,1010_06d15f44b979c086561137000ec070ba4cd479856f92840a7850b2bf_blur.jpg,0.189786,-0.189786,blurring,krki20,2022-06-09_20h30.19.038,ratings,2022.1.1,iPhone,62.5
1.408834983,2.17,-2.043802862,1.771,0,431,431,170,1,365_45a719cabbc9aa308c4fcb30d529489c6966ac4073874af84f665c61_edges.jpg,2.507936,-1.968252,edges,krki20,2022-06-09_20h30.19.038,ratings,2022.1.1,iPhone,62.5
1.8453754,1.337,-3.353424114,2.069,0,432,432,123,1,347_27f0e47c2722605b950ccf9fa900f78271e4c3c874064ab5dacac160_blur.jpg,1.838948,0.3097172,blurring,krki20,2022-06-09_20h30.19.038,ratings,2022.1.1,iPhone,62.5
-0.297641194,3.239,0.297641194,2.538,0,433,433,359,1,500_3b520c7f352afa1a9f8c07e56cc0588cdc04d25ff6e7b602b5e280cb_circblurext.jpg,-0.8328,3.11766,circularblurringext,krki20,2022-06-09_20h30.19.038,ratings,2022.1.1,iPhone,62.5
-0.099213731,2.153,1.170722028,1.571,0,434,434,586,1,1225_59c67a821456f2cce3e5acf66d7f00076bd02caffc984c1eb0df794e_circblurint.jpg,-0.444444,3.809524,circularblurringint,krki20,2022-06-09_20h30.19.038,ratings,2022.1.1,iPhone,62.5
1.091351043,88.544,-3.035940174,5.171,0,435,435,523,1,877_cab3efed0c9ff4552037df6c1ea4ea9713f915c94592a14dbf2799da_bw.jpg,3.174604,0.3174604,blackwhite,krki20,2022-06-09_20h30.19.038,ratings,2022.1.1,iPhone,62.5
-0.892923581,96.624,-0.892923581,96.973,0,436,436,392,1,663_aaf52107fe3a86392530d88b34e86f9d2b6820714cad98d1e3c2cb67_edges.jpg,2.58766,0.0918696,edges,krki20,2022-06-09_20h30.19.038,ratings,2022.1.1,iPhone,62.5
-1.766004415,3.154,-0.734181611,3.854,0,437,437,256,1,416_5eb54976bb41ce2a6d129ef985f792e716f010fb9b69b15f50f5d2db_circblurint.jpg,-2.58766,2.602972,circularblurringint,krki20,2022-06-09_20h30.19.038,ratings,2022.1.1,iPhone,62.5
-1.36914949,4.586,-0.416697671,3.486,0,438,438,373,1,620_9674719009d75dcfeaed7f15932c43e1fd1af5e25d47b8aadd61efe2_bw.jpg,-0.561364,1.142084,blackwhite,krki20,2022-06-09_20h30.19.038,ratings,2022.1.1,iPhone,62.5
0.138899224,2.386,-0.059528239,3.469,0,439,439,232,1,407_578d31d32e806706dde2563213f130b90e621abfed0e47ecabd85d27_circblurint.jpg,3.5873,-0.444444,circularblurringint,krki20,2022-06-09_20h30.19.038,ratings,2022.1.1,iPhone,62.5
-1.051665551,1.318,-0.892923581,1.634,0,440,440,173,1,365_45a719cabbc9aa308c4fcb30d529489c6966ac4073874af84f665c61_circblurext.jpg,2.507936,-1.968252,circularblurringext,krki20,2022-06-09_20h30.19.038,ratings,2022.1.1,iPhone,62.5
-1.646947938,1.518,0.218270209,2.518,0,441,441,599,1,1239_cee00457f4cfb76a407b12fd5ad714d440a4614c1e5467ee16caf618_circblurext.jpg,-0.03174604,0.190476,circularblurringext,krki20,2022-06-09_20h30.19.038,ratings,2022.1.1,iPhone,62.5
0.297641194,4.903,0.496068656,3.804,0,442,442,26,1,59_8568373b727f29d67ba6ce4c360dd918c8b08b13495fca56bdda5e82_edges.jpg,2.064896,0.505688,edges,krki20,2022-06-09_20h30.19.038,ratings,2022.1.1,iPhone,62.5
1.011980058,5.469,-2.599399757,4.869,0,443,443,73,1,236_f645730e1eb06155418c9a571329cc7fa320654fcaaedf1048b5cc11_bw.jpg,2.253968,0.0,blackwhite,krki20,2022-06-09_20h30.19.038,ratings,2022.1.1,iPhone,62.5
-1.8453754,6.117,0.932609073,8.034,0,444,444,423,1,692_e3e3bf88684fbbcdb9849a4147f9e2fcd39b0f083554a829aca4e9fa_blur.jpg,-0.44522,3.135888,blurring,krki20,2022-06-09_20h30.19.038,ratings,2022.1.1,iPhone,62.5
1.329463998,6,0.892923581,5.383,0,445,445,448,1,709_69c01dcde028a2a1a913f1a2a5026ae1748484f75c89217a040c6791_circblurint.jpg,1.432444,-0.01935732,circularblurringint,krki20,2022-06-09_20h30.19.038,ratings,2022.1.1,iPhone,62.5
-0.734181611,2.5,-0.456383163,2.833,0,446,446,224,1,403_57ac47f43882fc031a6067b1a388c0b2cbe8708dcbd2ff1019932eff_edges.jpg,-3.333332,-1.396824,edges,krki20,2022-06-09_20h30.19.038,ratings,2022.1.1,iPhone,62.5
0.892923581,3.804,-2.281915817,2.188,0,447,447,381,1,640_0ddb4981a5f5842ed5b4f7ef941be53779189df5e718b1fc5475ad80_blur.jpg,2.571428,-1.873016,blurring,krki20,2022-06-09_20h30.19.038,ratings,2022.1.1,iPhone,62.5
-0.138899224,5.402,-2.00411737,4.319,0,448,448,38,1,82_43f4d5aec7c2e5bd495473f6708a0f2d47c9fe34e1fe9436646cb036_edges.jpg,2.022756,0.505688,edges,krki20,2022-06-09_20h30.19.038,ratings,2022.1.1,iPhone,62.5
-2.281915817,6.083,1.488205968,3.433,0,449,449,84,1,243_beddb302dcb21071d88c8d2cab07002050d36b3001ef28f89389fa56_orig.jpg,-0.3450656,-0.2070392,original,krki20,2022-06-09_20h30.19.038,ratings,2022.1.1,iPhone,62.5
0.178584716,5.701,-3.274053129,4.118,0,450,450,541,1,1005_b980c0747d20935bc63cc27a9e05ce2ff5bae98f859872ec48edd7f5_bw.jpg,3.428572,-0.476192,blackwhite,krki20,2022-06-09_20h30.19.038,ratings,2022.1.1,iPhone,62.5
-1.011980058,2.17,-0.932609073,2.436,0,451,451,591,1,1228_557412d34d6a70b7c5d222e030aa485b351a4574e8ba1a3112d1d13d_blur.jpg,2.137444,0.703464,blurring,krki20,2022-06-09_20h30.19.038,ratings,2022.1.1,iPhone,62.5
-2.281915817,3.152,1.21040752,2.453,0,452,452,575,1,1039_d64da8480fc6e94dcdc513237d600570ae0b9fe48795ac6a8b2d29a7_circblurext.jpg,-2.507936,-1.142856,circularblurringext,krki20,2022-06-09_20h30.19.038,ratings,2022.1.1,iPhone,62.5
-0.813552596,1.619,-1.8453754,2.47,0,453,453,351,1,498_305b74cdc4784d9d25e72724302e5402def70177ea31ae7e25fab66b_blur.jpg,3.04762,-0.444444,blurring,krki20,2022-06-09_20h30.19.038,ratings,2022.1.1,iPhone,62.5
-1.766004415,6.152,0.297641194,3.285,0,454,454,109,1,293_3dfdfafc0c6a54b2da7453750ac281f7718c0b3337b0a74c4563d6bd_bw.jpg,-2.574524,2.632596,blackwhite,krki20,2022-06-09_20h30.19.038,ratings,2022.1.1,iPhone,62.5
0.773867103,6.068,-3.670908054,2.535,0,455,455,439,1,700_59cb565f134f1afd066d7b6d936c6511b7cb76de0e9cbb5ce15124ad_bw.jpg,0.0,0.0,blackwhite,krki20,2022-06-09_20h30.19.038,ratings,2022.1.1,iPhone,62.5
0.654810626,12.285,-2.916883697,11.702,0,456,456,440,1,700_59cb565f134f1afd066d7b6d936c6511b7cb76de0e9cbb5ce15124ad_edges.jpg,0.0,0.0,edges,krki20,2022-06-09_20h30.19.038,ratings,2022.1.1,iPhone,62.5
0.853238088,156.782,0.853238088,157.264,0,457,457,587,1,1225_59c67a821456f2cce3e5acf66d7f00076bd02caffc984c1eb0df794e_circblurext.jpg,-0.444444,3.809524,circularblurringext,krki20,2022-06-09_20h30.19.038,ratings,2022.1.1,iPhone,62.5
-1.250093013,3.118,0.813552596,2.334,0,458,458,495,1,824_b1d91cc824ce0d3d383d3147da88d3d6dbaf6be918bab79e3ec8f501_blur.jpg,-3.645176,-1.432784,blurring,krki20,2022-06-09_20h30.19.038,ratings,2022.1.1,iPhone,62.5
0.734181611,5.005,-2.043802862,3.983,0,459,459,471,1,741_2b218fb015e3da83db73cacdb52e61e0c2534c1fe255bb1c5c74d47f_blur.jpg,3.140096,0.448584,blurring,krki20,2022-06-09_20h30.19.038,ratings,2022.1.1,iPhone,62.5
1.805689907,30.82,-3.869335516,29.403,0,460,460,44,1,92_5d20d78a8e57e628c6930676473a4e0a485e715841efd6286c660020_edges.jpg,2.126984,0.0,edges,krki20,2022-06-09_20h30.19.038,ratings,2022.1.1,iPhone,62.5
1.011980058,5.518,0.853238088,3.819,0,461,461,595,1,1239_cee00457f4cfb76a407b12fd5ad714d440a4614c1e5467ee16caf618_bw.jpg,-0.03174604,0.190476,blackwhite,krki20,2022-06-09_20h30.19.038,ratings,2022.1.1,iPhone,62.5
