valence_slider.response,valence_slider.rt,arousal_slider.response,arousal_slider.rt,trials.thisRepN,trials.thisTrialN,trials.thisN,trials.thisIndex,trials.ran,img_name,vm,am,manipulation,participant,date,expName,psychopyVersion,OS,frameRate
1.381874414,8.221,-2.145195519,15.0467,0,0,0,109,1,293_3dfdfafc0c6a54b2da7453750ac281f7718c0b3337b0a74c4563d6bd_bw.jpg,-2.574524,2.632596,blackwhite,riri0610,2022-06-13_12h34.45.929,ratings,2022.1.1,Win32,60.05645307
2.158356227,8.506,0.118446378,21.4256,0,1,1,426,1,694_7a14b8ab7c564dcb0f628c4de7f6cb54e4c5f6601f774bf167641c37_orig.jpg,1.819588,0.116144,original,riri0610,2022-06-13_12h34.45.929,ratings,2022.1.1,Win32,60.05645307
-0.447464096,11.8996,-3.158570089,20.9899,0,2,2,344,1,494_5c6c3b85a2734a43c24bfe337d42ffcc82b7347227804d01c784cef4_edges.jpg,0.03871468,0.0,edges,riri0610,2022-06-13_12h34.45.929,ratings,2022.1.1,Win32,60.05645307
-0.960731735,9.4889,-2.829552371,18.4629,0,3,3,419,1,692_7d7eaf20e6de8956f0fca7500ace97a8599aa8b605a7d690cdb28724_circblurext.jpg,-2.063492,-1.26984,circularblurringext,riri0610,2022-06-13_12h34.45.929,ratings,2022.1.1,Win32,60.05645307
-0.500106931,22.2043,-0.078964252,27.4986,0,4,4,194,1,379_eeaa6d9bf5a4ef205dc48bc505cf3a7f24ea86e99af9b371e03602a7_edges.jpg,-0.3926308,2.88936,edges,riri0610,2022-06-13_12h34.45.929,ratings,2022.1.1,Win32,60.05645307
-2.02674914,15.5347,0.447464096,17.5174,0,5,5,396,1,683_a004ad18331da968da5debdd15e1447dd7748750af0bc6c57b844200_orig.jpg,-2.91956,2.466524,original,riri0610,2022-06-13_12h34.45.929,ratings,2022.1.1,Win32,60.05645307
0.513267639,2.4848,-2.500534654,11.0615,0,6,6,257,1,416_5eb54976bb41ce2a6d129ef985f792e716f010fb9b69b15f50f5d2db_circblurext.jpg,-2.58766,2.602972,circularblurringext,riri0610,2022-06-13_12h34.45.929,ratings,2022.1.1,Win32,60.05645307
0.092124961,19.4199,-1.026535279,34.3299,0,7,7,85,1,243_beddb302dcb21071d88c8d2cab07002050d36b3001ef28f89389fa56_bw.jpg,-0.3450656,-0.2070392,blackwhite,riri0610,2022-06-13_12h34.45.929,ratings,2022.1.1,Win32,60.05645307
-0.631714018,9.354,-1.921463471,25.0537,0,8,8,594,1,1239_cee00457f4cfb76a407b12fd5ad714d440a4614c1e5467ee16caf618_orig.jpg,-0.03174604,0.190476,original,riri0610,2022-06-13_12h34.45.929,ratings,2022.1.1,Win32,60.05645307
-2.079391975,28.0564,1.263428036,25.3974,0,9,9,584,1,1225_59c67a821456f2cce3e5acf66d7f00076bd02caffc984c1eb0df794e_edges.jpg,-0.444444,3.809524,edges,riri0610,2022-06-13_12h34.45.929,ratings,2022.1.1,Win32,60.05645307
1.881981345,5.6247,0.763321105,10.7683,0,10,10,381,1,640_0ddb4981a5f5842ed5b4f7ef941be53779189df5e718b1fc5475ad80_blur.jpg,2.571428,-1.873016,blurring,riri0610,2022-06-13_12h34.45.929,ratings,2022.1.1,Win32,60.05645307
-1.42135654,7.9252,-2.487373945,13.5489,0,11,11,598,1,1239_cee00457f4cfb76a407b12fd5ad714d440a4614c1e5467ee16caf618_circblurint.jpg,-0.03174604,0.190476,circularblurringint,riri0610,2022-06-13_12h34.45.929,ratings,2022.1.1,Win32,60.05645307
-2.395248984,19.9143,-1.763534966,50.5893,0,12,12,88,1,243_beddb302dcb21071d88c8d2cab07002050d36b3001ef28f89389fa56_circblurint.jpg,-0.3450656,-0.2070392,circularblurringint,riri0610,2022-06-13_12h34.45.929,ratings,2022.1.1,Win32,60.05645307
1.816177801,7.3598,0.934410318,13.2359,0,13,13,464,1,736_bb85db1bcda8eb34299aa5791ac65a0a7c343266eb2d6e6e328ec0e1_edges.jpg,3.650792,-0.03174604,edges,riri0610,2022-06-13_12h34.45.929,ratings,2022.1.1,Win32,60.05645307
-2.053070558,6.6146,-1.697731423,15.6866,0,14,14,370,1,616_05a637f5281666f53d4e2ef69351485fc21d629b37ee2006b2076eb6_circblurint.jpg,-2.380952,-0.832364,circularblurringint,riri0610,2022-06-13_12h34.45.929,ratings,2022.1.1,Win32,60.05645307
-1.408195831,5.8481,-1.487160084,15.3054,0,15,15,295,1,449_9c1e990a3480e5b51430fe76b0188e69ba2468fd6a866b88b2d0dd75_bw.jpg,0.095238,0.03174604,blackwhite,riri0610,2022-06-13_12h34.45.929,ratings,2022.1.1,Win32,60.05645307
1.197624492,11.2861,0.658035435,13.7964,0,16,16,1,1,13_771f4fcf0a212d25d6a78565e7f34cc5ddd823e7afbdc77ef063326e_bw.jpg,2.190476,0.0,blackwhite,riri0610,2022-06-13_12h34.45.929,ratings,2022.1.1,Win32,60.05645307
1.01337457,12.6694,1.842499219,22.5471,0,17,17,510,1,858_2f6539ee36aba48c38dc716d4f7c3ae93367d6ddf23ab41745d4172c_orig.jpg,0.0623832,0.176752,original,riri0610,2022-06-13_12h34.45.929,ratings,2022.1.1,Win32,60.05645307
2.105713393,3.6819,2.250481188,10.4123,0,18,18,180,1,369_98db62a1bdabfd1bc551180da6658005b461585cd21614633cf76470_orig.jpg,2.190476,-0.03174604,original,riri0610,2022-06-13_12h34.45.929,ratings,2022.1.1,Win32,60.05645307
1.697731423,9.1501,0.658035435,6.5361,0,19,19,423,1,692_e3e3bf88684fbbcdb9849a4147f9e2fcd39b0f083554a829aca4e9fa_blur.jpg,-0.44522,3.135888,blurring,riri0610,2022-06-13_12h34.45.929,ratings,2022.1.1,Win32,60.05645307
-0.934410318,4.749,-3.14540938,8.5252,0,20,20,261,1,416_8a1f874e0057d67a4e6955865ba88b2d8ce2c8b4469589307687a723_blur.jpg,-1.753336,3.088264,blurring,riri0610,2022-06-13_12h34.45.929,ratings,2022.1.1,Win32,60.05645307
0.71067827,1.4936,-1.197624492,9.6508,0,21,21,69,1,172_c641c6c56ca6b594b773084e1363c852abdb65f988d7ff802ee503f2_blur.jpg,0.379572,0.01725328,blurring,riri0610,2022-06-13_12h34.45.929,ratings,2022.1.1,Win32,60.05645307
0.513267639,6.9195,-1.197624492,8.339,0,22,22,148,1,354_e46c3ec6fb00773f64f2bcd212385f253c389808fe724b7cf8611051_circblurint.jpg,2.018292,0.0,circularblurringint,riri0610,2022-06-13_12h34.45.929,ratings,2022.1.1,Win32,60.05645307
-1.697731423,4.1909,-2.079391975,5.7003,0,23,23,369,1,616_05a637f5281666f53d4e2ef69351485fc21d629b37ee2006b2076eb6_blur.jpg,-2.380952,-0.832364,blurring,riri0610,2022-06-13_12h34.45.929,ratings,2022.1.1,Win32,60.05645307
-2.921677332,4.2964,1.645088588,7.2472,0,24,24,272,1,434_ba36d91204d7e578001f6a545d7501e65d209554def5a3c8b7583825_edges.jpg,-3.523808,1.428572,edges,riri0610,2022-06-13_12h34.45.929,ratings,2022.1.1,Win32,60.05645307
-1.223945909,11.4112,-1.434517249,12.1569,0,25,25,595,1,1239_cee00457f4cfb76a407b12fd5ad714d440a4614c1e5467ee16caf618_bw.jpg,-0.03174604,0.190476,blackwhite,riri0610,2022-06-13_12h34.45.929,ratings,2022.1.1,Win32,60.05645307
2.382088275,8.6621,1.776695675,10.2559,0,26,26,33,1,60_ad52063167538de24f94d7dfd04808cb94cf8f426c40871d2f126505_blur.jpg,2.158732,0.0,blurring,riri0610,2022-06-13_12h34.45.929,ratings,2022.1.1,Win32,60.05645307
1.921463471,2.7594,1.908302762,6.5427,0,27,27,125,1,347_27f0e47c2722605b950ccf9fa900f78271e4c3c874064ab5dacac160_circblurext.jpg,1.838948,0.3097172,circularblurringext,riri0610,2022-06-13_12h34.45.929,ratings,2022.1.1,Win32,60.05645307
0.460624805,2.0664,-1.513481501,3.7479,0,28,28,479,1,748_e519892faa7c772a0afaf9eeff36cf0e411574027ab3d9aa4947a048_circblurext.jpg,-1.813112,3.307432,circularblurringext,riri0610,2022-06-13_12h34.45.929,ratings,2022.1.1,Win32,60.05645307
0.987053153,1.5999,1.329231579,4.8177,0,29,29,484,1,759_95e1c46ed9a337414d5c8eada8fa8b9632e18751f5ce6ed587806e91_circblurint.jpg,2.126984,0.0,circularblurringint,riri0610,2022-06-13_12h34.45.929,ratings,2022.1.1,Win32,60.05645307
-1.276588744,1.5667,-1.605606462,3.7478,0,30,30,294,1,449_9c1e990a3480e5b51430fe76b0188e69ba2468fd6a866b88b2d0dd75_orig.jpg,0.095238,0.03174604,original,riri0610,2022-06-13_12h34.45.929,ratings,2022.1.1,Win32,60.05645307
0.671196144,1.459,0.473785513,2.7663,0,31,31,111,1,293_3dfdfafc0c6a54b2da7453750ac281f7718c0b3337b0a74c4563d6bd_blur.jpg,-2.574524,2.632596,blurring,riri0610,2022-06-13_12h34.45.929,ratings,2022.1.1,Win32,60.05645307
-2.447891819,4.0993,2.303124023,5.5501,0,32,32,586,1,1225_59c67a821456f2cce3e5acf66d7f00076bd02caffc984c1eb0df794e_circblurint.jpg,-0.444444,3.809524,circularblurringint,riri0610,2022-06-13_12h34.45.929,ratings,2022.1.1,Win32,60.05645307
-2.118874101,5.7476,-0.947571027,7.7281,0,33,33,321,1,460_e06b3af7ff2f2bfb5f9b6e3d5dc25b9aaa40b84823fac8fd934621bd_blur.jpg,-3.430992,-1.607468,blurring,riri0610,2022-06-13_12h34.45.929,ratings,2022.1.1,Win32,60.05645307
2.94799875,4.3832,2.079391975,5.7144,0,34,34,2,1,13_771f4fcf0a212d25d6a78565e7f34cc5ddd823e7afbdc77ef063326e_edges.jpg,2.190476,0.0,edges,riri0610,2022-06-13_12h34.45.929,ratings,2022.1.1,Win32,60.05645307
1.223945909,2.3931,0.644874727,3.742,0,35,35,65,1,156_08e8cf8f04630e9213e610580de73f51572d1d589878648700bae4dc_circblurext.jpg,2.222224,0.0,circularblurringext,riri0610,2022-06-13_12h34.45.929,ratings,2022.1.1,Win32,60.05645307
0.855446066,9.7686,-2.053070558,11.0346,0,36,36,286,1,440_dc6413e2b65369ee2587f4d85621742fe4ca87392d0a8ad2ea7d94e3_circblurint.jpg,-3.016216,1.69404,circularblurringint,riri0610,2022-06-13_12h34.45.929,ratings,2022.1.1,Win32,60.05645307
1.11866024,4.0809,0.039482126,6.13,0,37,37,73,1,236_f645730e1eb06155418c9a571329cc7fa320654fcaaedf1048b5cc11_bw.jpg,2.253968,0.0,blackwhite,riri0610,2022-06-13_12h34.45.929,ratings,2022.1.1,Win32,60.05645307
0.644874727,2.6334,2.210999062,4.0137,0,38,38,511,1,858_2f6539ee36aba48c38dc716d4f7c3ae93367d6ddf23ab41745d4172c_bw.jpg,0.0623832,0.176752,blackwhite,riri0610,2022-06-13_12h34.45.929,ratings,2022.1.1,Win32,60.05645307
0.315857009,5.1081,-0.039482126,7.9208,0,39,39,445,1,709_69c01dcde028a2a1a913f1a2a5026ae1748484f75c89217a040c6791_bw.jpg,1.432444,-0.01935732,blackwhite,riri0610,2022-06-13_12h34.45.929,ratings,2022.1.1,Win32,60.05645307
2.013588432,4.3999,1.42135654,6.2633,0,40,40,522,1,877_cab3efed0c9ff4552037df6c1ea4ea9713f915c94592a14dbf2799da_orig.jpg,3.174604,0.3174604,original,riri0610,2022-06-13_12h34.45.929,ratings,2022.1.1,Win32,60.05645307
-0.131607087,3.2179,-2.790070245,5.0645,0,41,41,82,1,242_85283f6935a89812ab229dcad9ba184529c9242ac3106d768ecf3ab3_circblurint.jpg,2.14918,-0.2949852,circularblurringint,riri0610,2022-06-13_12h34.45.929,ratings,2022.1.1,Win32,60.05645307
-1.816177801,6.7563,2.54001678,5.4471,0,42,42,583,1,1225_59c67a821456f2cce3e5acf66d7f00076bd02caffc984c1eb0df794e_bw.jpg,-0.444444,3.809524,blackwhite,riri0610,2022-06-13_12h34.45.929,ratings,2022.1.1,Win32,60.05645307
1.000213862,4.3515,-1.210785201,6.0742,0,43,43,429,1,694_7a14b8ab7c564dcb0f628c4de7f6cb54e4c5f6601f774bf167641c37_blur.jpg,1.819588,0.116144,blurring,riri0610,2022-06-13_12h34.45.929,ratings,2022.1.1,Win32,60.05645307
1.974106306,1.3864,1.460838666,2.4124,0,44,44,201,1,380_34772591c787182a37724027eac6948ebc9d4064f6a601d23b923b8e_blur.jpg,2.222224,-0.063492,blurring,riri0610,2022-06-13_12h34.45.929,ratings,2022.1.1,Win32,60.05645307
0.776481814,1.8072,1.105499531,4.8982,0,45,45,5,1,13_771f4fcf0a212d25d6a78565e7f34cc5ddd823e7afbdc77ef063326e_circblurext.jpg,2.190476,0.0,circularblurringext,riri0610,2022-06-13_12h34.45.929,ratings,2022.1.1,Win32,60.05645307
-1.816177801,1.6005,0.697517561,2.8191,0,46,46,397,1,683_a004ad18331da968da5debdd15e1447dd7748750af0bc6c57b844200_bw.jpg,-2.91956,2.466524,blackwhite,riri0610,2022-06-13_12h34.45.929,ratings,2022.1.1,Win32,60.05645307
1.355552997,6.4408,-2.079391975,9.0209,0,47,47,473,1,741_2b218fb015e3da83db73cacdb52e61e0c2534c1fe255bb1c5c74d47f_circblurext.jpg,3.140096,0.448584,circularblurringext,riri0610,2022-06-13_12h34.45.929,ratings,2022.1.1,Win32,60.05645307
0.71067827,20.4795,2.263641897,21.3287,0,48,48,325,1,468_8b69b13120daebadd8a4a3166e1419f2404395cba231307a4efa9fde_bw.jpg,2.031744,0.2539684,blackwhite,riri0610,2022-06-13_12h34.45.929,ratings,2022.1.1,Win32,60.05645307
-0.473785513,2.5821,-0.421142679,4.2792,0,49,49,386,1,646_577760d718dab44c6f04d77408c5644a120065ce07a9503957d0850a_edges.jpg,-2.690668,2.61324,edges,riri0610,2022-06-13_12h34.45.929,ratings,2022.1.1,Win32,60.05645307
0.539589057,2.8596,-1.237106618,3.9564,0,50,50,223,1,403_57ac47f43882fc031a6067b1a388c0b2cbe8708dcbd2ff1019932eff_bw.jpg,-3.333332,-1.396824,blackwhite,riri0610,2022-06-13_12h34.45.929,ratings,2022.1.1,Win32,60.05645307
0.750160396,3.0765,0.263214174,4.4307,0,51,51,144,1,354_e46c3ec6fb00773f64f2bcd212385f253c389808fe724b7cf8611051_orig.jpg,2.018292,0.0,original,riri0610,2022-06-13_12h34.45.929,ratings,2022.1.1,Win32,60.05645307
-0.013160709,8.3448,1.342392288,7.5798,0,52,52,3,1,13_771f4fcf0a212d25d6a78565e7f34cc5ddd823e7afbdc77ef063326e_blur.jpg,2.190476,0.0,blurring,riri0610,2022-06-13_12h34.45.929,ratings,2022.1.1,Win32,60.05645307
1.460838666,3.2837,1.395035123,9.5247,0,53,53,524,1,877_cab3efed0c9ff4552037df6c1ea4ea9713f915c94592a14dbf2799da_edges.jpg,3.174604,0.3174604,edges,riri0610,2022-06-13_12h34.45.929,ratings,2022.1.1,Win32,60.05645307
0.513267639,4.76,0.394821261,6.7511,0,54,54,578,1,1061_665178b9cb0bc869cc2e2b68def4838db04e66f9531098fb75875a09_edges.jpg,0.3492064,-0.3174604,edges,riri0610,2022-06-13_12h34.45.929,ratings,2022.1.1,Win32,60.05645307
0.157928504,3.999,-0.973892444,7.3452,0,55,55,488,1,818_877aae033c31e3bbca4486321a5307f87cf53c576c546462d3daf194_edges.jpg,-1.277584,0.619436,edges,riri0610,2022-06-13_12h34.45.929,ratings,2022.1.1,Win32,60.05645307
0.3026963,2.3168,0,4.2625,0,56,56,341,1,492_a1a4d288d3bc486c83c3b6a835c42891989f5ba781633932298a7676_circblurext.jpg,3.406892,-0.44522,circularblurringext,riri0610,2022-06-13_12h34.45.929,ratings,2022.1.1,Win32,60.05645307
-0.644874727,3.6331,-1.895142053,5.9234,0,57,57,213,1,394_8e3a0cb945144d53bd1ace04b6256237ed9dcbbd9cb83f8a4886b0e6_blur.jpg,-2.593884,2.651956,blurring,riri0610,2022-06-13_12h34.45.929,ratings,2022.1.1,Win32,60.05645307
1.618767171,5.0558,1.223945909,6.2111,0,58,58,520,1,860_05c4e22518a30d3d2add458a8fc6488f87b9b02dd8e385ded939f025_circblurint.jpg,1.955092,0.3097172,circularblurringint,riri0610,2022-06-13_12h34.45.929,ratings,2022.1.1,Win32,60.05645307
1.250267327,2.9765,-2.02674914,5.14,0,59,59,457,1,720_483c541c48959a597fcf44320941afaf8b7695105f90d65b5f6b30f2_bw.jpg,2.158732,-0.2539684,blackwhite,riri0610,2022-06-13_12h34.45.929,ratings,2022.1.1,Win32,60.05645307
-0.263214174,1.9504,-0.500106931,3.132,0,60,60,439,1,700_59cb565f134f1afd066d7b6d936c6511b7cb76de0e9cbb5ce15124ad_bw.jpg,0.0,0.0,blackwhite,riri0610,2022-06-13_12h34.45.929,ratings,2022.1.1,Win32,60.05645307
0.355339135,1.9441,-1.605606462,4.1061,0,61,61,153,1,355_00a76f54934d36566dd0e7b091b8aa6a56d8e6b32d349aa578a10b45_blur.jpg,2.910052,0.3439152,blurring,riri0610,2022-06-13_12h34.45.929,ratings,2022.1.1,Win32,60.05645307
1.842499219,2.3762,0.894928192,3.1636,0,62,62,29,1,59_8568373b727f29d67ba6ce4c360dd918c8b08b13495fca56bdda5e82_circblurext.jpg,2.064896,0.505688,circularblurringext,riri0610,2022-06-13_12h34.45.929,ratings,2022.1.1,Win32,60.05645307
2.408409693,2.3079,2.066231267,4.8984,0,63,63,277,1,440_9bf7e8609729bf888835168834da6c3ff30b75d0d4f36e2ee6918bcc_bw.jpg,-2.284164,2.710028,blackwhite,riri0610,2022-06-13_12h34.45.929,ratings,2022.1.1,Win32,60.05645307
1.144981657,3.7642,-1.11866024,6.2449,0,64,64,81,1,242_85283f6935a89812ab229dcad9ba184529c9242ac3106d768ecf3ab3_blur.jpg,2.14918,-0.2949852,blurring,riri0610,2022-06-13_12h34.45.929,ratings,2022.1.1,Win32,60.05645307
0.908088901,2.2812,0.197410631,5.0435,0,65,65,146,1,354_e46c3ec6fb00773f64f2bcd212385f253c389808fe724b7cf8611051_edges.jpg,2.018292,0.0,edges,riri0610,2022-06-13_12h34.45.929,ratings,2022.1.1,Win32,60.05645307
0.802803231,2.5011,-1.276588744,4.1997,0,66,66,155,1,355_00a76f54934d36566dd0e7b091b8aa6a56d8e6b32d349aa578a10b45_circblurext.jpg,2.910052,0.3439152,circularblurringext,riri0610,2022-06-13_12h34.45.929,ratings,2022.1.1,Win32,60.05645307
1.000213862,1.9179,-0.210571339,4.662,0,67,67,229,1,407_578d31d32e806706dde2563213f130b90e621abfed0e47ecabd85d27_bw.jpg,3.5873,-0.444444,blackwhite,riri0610,2022-06-13_12h34.45.929,ratings,2022.1.1,Win32,60.05645307
0.223732048,2.5367,-1.605606462,3.6604,0,68,68,390,1,663_aaf52107fe3a86392530d88b34e86f9d2b6820714cad98d1e3c2cb67_orig.jpg,2.58766,0.0918696,original,riri0610,2022-06-13_12h34.45.929,ratings,2022.1.1,Win32,60.05645307
2.118874101,2.0199,0.210571339,4.5327,0,69,69,16,1,39_2fafccaa4dc69045a05845f59c6b3cd2edcf7e0e0c108b24e553afe0_circblurint.jpg,2.022756,0.463548,circularblurringint,riri0610,2022-06-13_12h34.45.929,ratings,2022.1.1,Win32,60.05645307
1.72405284,3.4209,0.289535591,5.9488,0,70,70,49,1,112_b6a4ce721c2e42943d7d8b168751d74cd2f372b1cd4fed5a4404faec_bw.jpg,2.107036,0.505688,blackwhite,riri0610,2022-06-13_12h34.45.929,ratings,2022.1.1,Win32,60.05645307
2.23732048,1.8989,1.487160084,3.1135,0,71,71,36,1,82_43f4d5aec7c2e5bd495473f6708a0f2d47c9fe34e1fe9436646cb036_orig.jpg,2.022756,0.505688,original,riri0610,2022-06-13_12h34.45.929,ratings,2022.1.1,Win32,60.05645307
0.868606774,2.0945,-1.000213862,4.4442,0,72,72,383,1,640_0ddb4981a5f5842ed5b4f7ef941be53779189df5e718b1fc5475ad80_circblurext.jpg,2.571428,-1.873016,circularblurringext,riri0610,2022-06-13_12h34.45.929,ratings,2022.1.1,Win32,60.05645307
1.131820949,2.6678,0.421142679,3.8827,0,73,73,120,1,347_27f0e47c2722605b950ccf9fa900f78271e4c3c874064ab5dacac160_orig.jpg,1.838948,0.3097172,original,riri0610,2022-06-13_12h34.45.929,ratings,2022.1.1,Win32,60.05645307
-0.473785513,12.4071,-2.829552371,16.7184,0,74,74,441,1,700_59cb565f134f1afd066d7b6d936c6511b7cb76de0e9cbb5ce15124ad_blur.jpg,0.0,0.0,blurring,riri0610,2022-06-13_12h34.45.929,ratings,2022.1.1,Win32,60.05645307
0.223732048,3.1991,-2.553177489,5.3632,0,75,75,60,1,156_08e8cf8f04630e9213e610580de73f51572d1d589878648700bae4dc_orig.jpg,2.222224,0.0,original,riri0610,2022-06-13_12h34.45.929,ratings,2022.1.1,Win32,60.05645307
-0.171089213,4.2082,-2.632141741,5.3396,0,76,76,67,1,172_c641c6c56ca6b594b773084e1363c852abdb65f988d7ff802ee503f2_bw.jpg,0.379572,0.01725328,blackwhite,riri0610,2022-06-13_12h34.45.929,ratings,2022.1.1,Win32,60.05645307
0.71067827,2.3262,0.618553309,4.3561,0,77,77,480,1,759_95e1c46ed9a337414d5c8eada8fa8b9632e18751f5ce6ed587806e91_orig.jpg,2.126984,0.0,original,riri0610,2022-06-13_12h34.45.929,ratings,2022.1.1,Win32,60.05645307
0.842285357,1.7705,-1.93462418,3.7743,0,78,78,378,1,640_0ddb4981a5f5842ed5b4f7ef941be53779189df5e718b1fc5475ad80_orig.jpg,2.571428,-1.873016,original,riri0610,2022-06-13_12h34.45.929,ratings,2022.1.1,Win32,60.05645307
-0.052642835,3.3322,-1.289749453,4.3818,0,79,79,391,1,663_aaf52107fe3a86392530d88b34e86f9d2b6820714cad98d1e3c2cb67_bw.jpg,2.58766,0.0918696,blackwhite,riri0610,2022-06-13_12h34.45.929,ratings,2022.1.1,Win32,60.05645307
0.447464096,2.7896,2.43473111,4.2297,0,80,80,324,1,468_8b69b13120daebadd8a4a3166e1419f2404395cba231307a4efa9fde_orig.jpg,2.031744,0.2539684,original,riri0610,2022-06-13_12h34.45.929,ratings,2022.1.1,Win32,60.05645307
1.131820949,3.1341,-0.052642835,7.7781,0,81,81,290,1,442_7449d79dae5d652af9b2429872cabdef938646ba024db2f431b3b28d_edges.jpg,1.619048,0.126984,edges,riri0610,2022-06-13_12h34.45.929,ratings,2022.1.1,Win32,60.05645307
1.434517249,2.7489,1.473999375,3.7246,0,82,82,124,1,347_27f0e47c2722605b950ccf9fa900f78271e4c3c874064ab5dacac160_circblurint.jpg,1.838948,0.3097172,circularblurringint,riri0610,2022-06-13_12h34.45.929,ratings,2022.1.1,Win32,60.05645307
0.934410318,13.3237,0.565910474,14.3513,0,83,83,447,1,709_69c01dcde028a2a1a913f1a2a5026ae1748484f75c89217a040c6791_blur.jpg,1.432444,-0.01935732,blurring,riri0610,2022-06-13_12h34.45.929,ratings,2022.1.1,Win32,60.05645307
-3.277016467,3.5848,0.118446378,4.7644,0,84,84,141,1,353_44e285740cb41818482ac93fc5fbd72c18029444a1d7506c9fc053e7_blur.jpg,-3.232676,-0.87108,blurring,riri0610,2022-06-13_12h34.45.929,ratings,2022.1.1,Win32,60.05645307
-1.408195831,5.8188,0.223732048,9.2103,0,85,85,559,1,1022_cf035e583d41a856836f8b0ae314ecbe79dffd9e40ef6a08cc26028f_bw.jpg,-0.2516452,3.05846,blackwhite,riri0610,2022-06-13_12h34.45.929,ratings,2022.1.1,Win32,60.05645307
2.421570402,3.3101,2.303124023,4.2435,0,86,86,402,1,686_6745b57686ad5d1bd6cf3e7ed5bc0243a154f8939e88e30321dfcfdb_orig.jpg,-1.523808,3.650792,original,riri0610,2022-06-13_12h34.45.929,ratings,2022.1.1,Win32,60.05645307
-0.973892444,3.7702,-2.000427723,4.7206,0,87,87,476,1,748_e519892faa7c772a0afaf9eeff36cf0e411574027ab3d9aa4947a048_edges.jpg,-1.813112,3.307432,edges,riri0610,2022-06-13_12h34.45.929,ratings,2022.1.1,Win32,60.05645307
1.513481501,2.2198,0.802803231,6.6599,0,88,88,53,1,112_b6a4ce721c2e42943d7d8b168751d74cd2f372b1cd4fed5a4404faec_circblurext.jpg,2.107036,0.505688,circularblurringext,riri0610,2022-06-13_12h34.45.929,ratings,2022.1.1,Win32,60.05645307
0.250053465,3.0402,-1.105499531,4.722,0,89,89,93,1,258_d26019382777d2159a974a7654923e71598135ce2cd710cea1f92865_blur.jpg,3.497684,-0.61104,blurring,riri0610,2022-06-13_12h34.45.929,ratings,2022.1.1,Win32,60.05645307
1.329231579,2.2589,0.40798197,5.4225,0,90,90,314,1,459_46e25de472bb056cb470716d30937415f7344bfc4354d6eb710d8c9f_edges.jpg,0.03174604,0.0,edges,riri0610,2022-06-13_12h34.45.929,ratings,2022.1.1,Win32,60.05645307
-0.342178426,4.2068,-1.658249297,5.133,0,91,91,236,1,410_9633c4ff6e8888fcfca59a60ca86e9606d3e0736500a254101bdf295_edges.jpg,-0.3677892,2.981028,edges,riri0610,2022-06-13_12h34.45.929,ratings,2022.1.1,Win32,60.05645307
-0.223732048,3.971,-2.605820323,5.8102,0,92,92,18,1,48_2cc936b2483ab2944c9158e163342b874ef6c1492fd8fca08c0e096e_orig.jpg,-1.264224,-0.779604,original,riri0610,2022-06-13_12h34.45.929,ratings,2022.1.1,Win32,60.05645307
2.263641897,2.2768,2.421570402,3.5028,0,93,93,185,1,369_98db62a1bdabfd1bc551180da6658005b461585cd21614633cf76470_circblurext.jpg,2.190476,-0.03174604,circularblurringext,riri0610,2022-06-13_12h34.45.929,ratings,2022.1.1,Win32,60.05645307
0.513267639,7.1889,-1.381874414,8.1612,0,94,94,224,1,403_57ac47f43882fc031a6067b1a388c0b2cbe8708dcbd2ff1019932eff_edges.jpg,-3.333332,-1.396824,edges,riri0610,2022-06-13_12h34.45.929,ratings,2022.1.1,Win32,60.05645307
-3.44810568,2.2151,-1.197624492,10.7879,0,95,95,156,1,358_157f8ac929713531a15b1ecf115e7b659cb90e83d675251e368d165f_orig.jpg,-3.777776,-0.571428,original,riri0610,2022-06-13_12h34.45.929,ratings,2022.1.1,Win32,60.05645307
-3.224373633,1.8901,-2.461052528,10.7959,0,96,96,358,1,500_3b520c7f352afa1a9f8c07e56cc0588cdc04d25ff6e7b602b5e280cb_circblurint.jpg,-0.8328,3.11766,circularblurringint,riri0610,2022-06-13_12h34.45.929,ratings,2022.1.1,Win32,60.05645307
-1.01337457,4.0925,-0.908088901,3.2934,0,97,97,260,1,416_8a1f874e0057d67a4e6955865ba88b2d8ce2c8b4469589307687a723_edges.jpg,-1.753336,3.088264,edges,riri0610,2022-06-13_12h34.45.929,ratings,2022.1.1,Win32,60.05645307
-3.65867702,2.6857,-2.684784576,7.061,0,98,98,495,1,824_b1d91cc824ce0d3d383d3147da88d3d6dbaf6be918bab79e3ec8f501_blur.jpg,-3.645176,-1.432784,blurring,riri0610,2022-06-13_12h34.45.929,ratings,2022.1.1,Win32,60.05645307
0.539589057,2.3552,-1.329231579,4.4296,0,99,99,430,1,694_7a14b8ab7c564dcb0f628c4de7f6cb54e4c5f6601f774bf167641c37_circblurint.jpg,1.819588,0.116144,circularblurringint,riri0610,2022-06-13_12h34.45.929,ratings,2022.1.1,Win32,60.05645307
0.329017718,4.6913,-1.42135654,5.8691,0,100,100,596,1,1239_cee00457f4cfb76a407b12fd5ad714d440a4614c1e5467ee16caf618_edges.jpg,-0.03174604,0.190476,edges,riri0610,2022-06-13_12h34.45.929,ratings,2022.1.1,Win32,60.05645307
-3.408623554,1.6166,-2.303124023,2.99,0,101,101,537,1,986_a77edb21e78bc3a6aa7406517824596b3496ad6c657b6befb84cf370_blur.jpg,-3.906316,-0.60496,blurring,riri0610,2022-06-13_12h34.45.929,ratings,2022.1.1,Win32,60.05645307
0.513267639,2.4984,-1.197624492,3.6961,0,102,102,427,1,694_7a14b8ab7c564dcb0f628c4de7f6cb54e4c5f6601f774bf167641c37_bw.jpg,1.819588,0.116144,blackwhite,riri0610,2022-06-13_12h34.45.929,ratings,2022.1.1,Win32,60.05645307
-1.52664221,7.9999,0.421142679,10.5969,0,103,103,328,1,468_8b69b13120daebadd8a4a3166e1419f2404395cba231307a4efa9fde_circblurint.jpg,2.031744,0.2539684,circularblurringint,riri0610,2022-06-13_12h34.45.929,ratings,2022.1.1,Win32,60.05645307
1.395035123,3.3902,1.302910162,4.407,0,104,104,285,1,440_dc6413e2b65369ee2587f4d85621742fe4ca87392d0a8ad2ea7d94e3_blur.jpg,-3.016216,1.69404,blurring,riri0610,2022-06-13_12h34.45.929,ratings,2022.1.1,Win32,60.05645307
-3.461266389,1.4618,-2.592659615,2.8271,0,105,105,133,1,349_8809a67686d34844c915d7700e2ea72ad1c02ae232ae0d3cc0e458d4_bw.jpg,-3.619048,-0.2857144,blackwhite,riri0610,2022-06-13_12h34.45.929,ratings,2022.1.1,Win32,60.05645307
-2.053070558,3.4757,0.881767483,4.7404,0,106,106,271,1,434_ba36d91204d7e578001f6a545d7501e65d209554def5a3c8b7583825_bw.jpg,-3.523808,1.428572,blackwhite,riri0610,2022-06-13_12h34.45.929,ratings,2022.1.1,Win32,60.05645307
0.947571027,4.9414,-1.895142053,7.8537,0,107,107,350,1,498_305b74cdc4784d9d25e72724302e5402def70177ea31ae7e25fab66b_edges.jpg,3.04762,-0.444444,edges,riri0610,2022-06-13_12h34.45.929,ratings,2022.1.1,Win32,60.05645307
-0.868606774,1.6967,-2.329445441,5.9227,0,108,108,491,1,818_877aae033c31e3bbca4486321a5307f87cf53c576c546462d3daf194_circblurext.jpg,-1.277584,0.619436,circularblurringext,riri0610,2022-06-13_12h34.45.929,ratings,2022.1.1,Win32,60.05645307
0.421142679,1.8938,-1.618767171,3.8747,0,109,109,508,1,855_66d893451dfd1e7615132071c6c8a82b02dc2b37781cd89400883b26_circblurint.jpg,2.69484,0.2143624,circularblurringint,riri0610,2022-06-13_12h34.45.929,ratings,2022.1.1,Win32,60.05645307
-0.763321105,2.0182,-2.316284732,5.0317,0,110,110,204,1,381_5935a9f9796adce2f1539af6c75bcdc0c80d847a2ce9b77cf59b7672_orig.jpg,-1.327432,-0.442476,original,riri0610,2022-06-13_12h34.45.929,ratings,2022.1.1,Win32,60.05645307
-2.869034498,1.9425,-2.145195519,3.2719,0,111,111,161,1,358_157f8ac929713531a15b1ecf115e7b659cb90e83d675251e368d165f_circblurext.jpg,-3.777776,-0.571428,circularblurringext,riri0610,2022-06-13_12h34.45.929,ratings,2022.1.1,Win32,60.05645307
-1.855659927,1.8519,-2.000427723,3.6502,0,112,112,562,1,1022_cf035e583d41a856836f8b0ae314ecbe79dffd9e40ef6a08cc26028f_circblurint.jpg,-0.2516452,3.05846,circularblurringint,riri0610,2022-06-13_12h34.45.929,ratings,2022.1.1,Win32,60.05645307
0.894928192,4.3899,-1.908302762,9.7238,0,113,113,222,1,403_57ac47f43882fc031a6067b1a388c0b2cbe8708dcbd2ff1019932eff_orig.jpg,-3.333332,-1.396824,original,riri0610,2022-06-13_12h34.45.929,ratings,2022.1.1,Win32,60.05645307
1.131820949,1.8428,0.658035435,3.0578,0,114,114,170,1,365_45a719cabbc9aa308c4fcb30d529489c6966ac4073874af84f665c61_edges.jpg,2.507936,-1.968252,edges,riri0610,2022-06-13_12h34.45.929,ratings,2022.1.1,Win32,60.05645307
1.289749453,3.957,1.42135654,3.0493,0,115,115,123,1,347_27f0e47c2722605b950ccf9fa900f78271e4c3c874064ab5dacac160_blur.jpg,1.838948,0.3097172,blurring,riri0610,2022-06-13_12h34.45.929,ratings,2022.1.1,Win32,60.05645307
1.237106618,1.5941,-1.487160084,2.802,0,116,116,78,1,242_85283f6935a89812ab229dcad9ba184529c9242ac3106d768ecf3ab3_orig.jpg,2.14918,-0.2949852,original,riri0610,2022-06-13_12h34.45.929,ratings,2022.1.1,Win32,60.05645307
-0.789642522,1.8692,-2.23732048,3.5976,0,117,117,238,1,410_9633c4ff6e8888fcfca59a60ca86e9606d3e0736500a254101bdf295_circblurint.jpg,-0.3677892,2.981028,circularblurringint,riri0610,2022-06-13_12h34.45.929,ratings,2022.1.1,Win32,60.05645307
1.82933851,6.6051,0.960731735,8.2511,0,118,118,179,1,368_6507b94d7d0199f14efd3706db30c9c44b96085f84e9cc7792e3e0ae_circblurext.jpg,1.959544,0.400336,circularblurringext,riri0610,2022-06-13_12h34.45.929,ratings,2022.1.1,Win32,60.05645307
1.816177801,1.8562,1.158142366,3.6818,0,119,119,176,1,368_6507b94d7d0199f14efd3706db30c9c44b96085f84e9cc7792e3e0ae_edges.jpg,1.959544,0.400336,edges,riri0610,2022-06-13_12h34.45.929,ratings,2022.1.1,Win32,60.05645307
1.105499531,2.0011,-1.000213862,3.0208,0,120,120,232,1,407_578d31d32e806706dde2563213f130b90e621abfed0e47ecabd85d27_circblurint.jpg,3.5873,-0.444444,circularblurringint,riri0610,2022-06-13_12h34.45.929,ratings,2022.1.1,Win32,60.05645307
1.737213549,6.4279,0.223732048,9.0399,0,121,121,178,1,368_6507b94d7d0199f14efd3706db30c9c44b96085f84e9cc7792e3e0ae_circblurint.jpg,1.959544,0.400336,circularblurringint,riri0610,2022-06-13_12h34.45.929,ratings,2022.1.1,Win32,60.05645307
-2.895355915,1.9206,-2.84271308,2.8947,0,122,122,535,1,986_a77edb21e78bc3a6aa7406517824596b3496ad6c657b6befb84cf370_bw.jpg,-3.906316,-0.60496,blackwhite,riri0610,2022-06-13_12h34.45.929,ratings,2022.1.1,Win32,60.05645307
1.737213549,3.5577,-1.842499219,5.8071,0,123,123,469,1,741_2b218fb015e3da83db73cacdb52e61e0c2534c1fe255bb1c5c74d47f_bw.jpg,3.140096,0.448584,blackwhite,riri0610,2022-06-13_12h34.45.929,ratings,2022.1.1,Win32,60.05645307
1.908302762,1.7441,1.618767171,2.9934,0,124,124,279,1,440_9bf7e8609729bf888835168834da6c3ff30b75d0d4f36e2ee6918bcc_blur.jpg,-2.284164,2.710028,blurring,riri0610,2022-06-13_12h34.45.929,ratings,2022.1.1,Win32,60.05645307
-2.855873789,2.8248,-3.592873476,4.5248,0,125,125,126,1,349_18d92ef5c21ca70a3dd237aad251594e1688bbe01d8cff37b89c46b8_orig.jpg,-2.74874,-1.258228,original,riri0610,2022-06-13_12h34.45.929,ratings,2022.1.1,Win32,60.05645307
-0.921249609,4.6735,-1.816177801,5.7893,0,126,126,364,1,508_a7a9519cdc7aad6844030f4e6cd96cffd1b9c49b71e20ea52789bda2_circblurint.jpg,-3.000388,-1.29694,circularblurringint,riri0610,2022-06-13_12h34.45.929,ratings,2022.1.1,Win32,60.05645307
1.11866024,2.2335,-0.960731735,5.2964,0,127,127,382,1,640_0ddb4981a5f5842ed5b4f7ef941be53779189df5e718b1fc5475ad80_circblurint.jpg,2.571428,-1.873016,circularblurringint,riri0610,2022-06-13_12h34.45.929,ratings,2022.1.1,Win32,60.05645307
-0.078964252,2.9665,-2.263641897,4.2021,0,128,128,95,1,258_d26019382777d2159a974a7654923e71598135ce2cd710cea1f92865_circblurext.jpg,3.497684,-0.61104,circularblurringext,riri0610,2022-06-13_12h34.45.929,ratings,2022.1.1,Win32,60.05645307
1.592445753,3.8886,0.065803544,5.0905,0,129,129,108,1,293_3dfdfafc0c6a54b2da7453750ac281f7718c0b3337b0a74c4563d6bd_orig.jpg,-2.574524,2.632596,original,riri0610,2022-06-13_12h34.45.929,ratings,2022.1.1,Win32,60.05645307
-2.210999062,8.3929,0.197410631,6.5286,0,130,130,139,1,353_44e285740cb41818482ac93fc5fbd72c18029444a1d7506c9fc053e7_bw.jpg,-3.232676,-0.87108,blackwhite,riri0610,2022-06-13_12h34.45.929,ratings,2022.1.1,Win32,60.05645307
-0.500106931,3.1415,-1.842499219,3.7685,0,131,131,212,1,394_8e3a0cb945144d53bd1ace04b6256237ed9dcbbd9cb83f8a4886b0e6_edges.jpg,-2.593884,2.651956,edges,riri0610,2022-06-13_12h34.45.929,ratings,2022.1.1,Win32,60.05645307
1.460838666,2.1662,-0.868606774,4.3411,0,132,132,300,1,453_54f106fd1d4b65fa4aa347407127fc30d49f791e81aee3a0bbe44489_orig.jpg,2.222224,0.0,original,riri0610,2022-06-13_12h34.45.929,ratings,2022.1.1,Win32,60.05645307
0.276374883,15.9291,0.078964252,19.4076,0,133,133,288,1,442_7449d79dae5d652af9b2429872cabdef938646ba024db2f431b3b28d_orig.jpg,1.619048,0.126984,original,riri0610,2022-06-13_12h34.45.929,ratings,2022.1.1,Win32,60.05645307
1.026535279,1.2965,-0.092124961,2.825,0,134,134,233,1,407_578d31d32e806706dde2563213f130b90e621abfed0e47ecabd85d27_circblurext.jpg,3.5873,-0.444444,circularblurringext,riri0610,2022-06-13_12h34.45.929,ratings,2022.1.1,Win32,60.05645307
0.394821261,2.6526,-1.487160084,3.5979,0,135,135,394,1,663_aaf52107fe3a86392530d88b34e86f9d2b6820714cad98d1e3c2cb67_circblurint.jpg,2.58766,0.0918696,circularblurringint,riri0610,2022-06-13_12h34.45.929,ratings,2022.1.1,Win32,60.05645307
1.395035123,1.7597,1.092338822,2.5593,0,136,136,12,1,39_2fafccaa4dc69045a05845f59c6b3cd2edcf7e0e0c108b24e553afe0_orig.jpg,2.022756,0.463548,original,riri0610,2022-06-13_12h34.45.929,ratings,2022.1.1,Win32,60.05645307
0.763321105,1.68,1.000213862,2.9069,0,137,137,230,1,407_578d31d32e806706dde2563213f130b90e621abfed0e47ecabd85d27_edges.jpg,3.5873,-0.444444,edges,riri0610,2022-06-13_12h34.45.929,ratings,2022.1.1,Win32,60.05645307
-0.855446066,3.9255,-2.158356227,6.3152,0,138,138,356,1,500_3b520c7f352afa1a9f8c07e56cc0588cdc04d25ff6e7b602b5e280cb_edges.jpg,-0.8328,3.11766,edges,riri0610,2022-06-13_12h34.45.929,ratings,2022.1.1,Win32,60.05645307
-1.092338822,4.9108,-1.342392288,6.6992,0,139,139,486,1,818_877aae033c31e3bbca4486321a5307f87cf53c576c546462d3daf194_orig.jpg,-1.277584,0.619436,original,riri0610,2022-06-13_12h34.45.929,ratings,2022.1.1,Win32,60.05645307
0.881767483,1.1132,-0.684356853,2.8657,0,140,140,379,1,640_0ddb4981a5f5842ed5b4f7ef941be53779189df5e718b1fc5475ad80_bw.jpg,2.571428,-1.873016,blackwhite,riri0610,2022-06-13_12h34.45.929,ratings,2022.1.1,Win32,60.05645307
-0.289535591,3.7323,-2.64530245,4.4167,0,141,141,57,1,137_0e6a04243c0a42a5e2528a2d181255ca2a4b7bd6e7978c5c2059c69f_blur.jpg,-0.95238,2.095236,blurring,riri0610,2022-06-13_12h34.45.929,ratings,2022.1.1,Win32,60.05645307
1.381874414,3.132,-0.065803544,4.1797,0,142,142,174,1,368_6507b94d7d0199f14efd3706db30c9c44b96085f84e9cc7792e3e0ae_orig.jpg,1.959544,0.400336,original,riri0610,2022-06-13_12h34.45.929,ratings,2022.1.1,Win32,60.05645307
1.72405284,3.9646,-0.289535591,6.0451,0,143,143,340,1,492_a1a4d288d3bc486c83c3b6a835c42891989f5ba781633932298a7676_circblurint.jpg,3.406892,-0.44522,circularblurringint,riri0610,2022-06-13_12h34.45.929,ratings,2022.1.1,Win32,60.05645307
-3.013802293,1.6952,-0.092124961,3.6242,0,144,144,330,1,482_a1cd28915c5044c018195ab0fff10dcc95e385246b045a7cd4463ff7_orig.jpg,-3.361852,-1.555612,original,riri0610,2022-06-13_12h34.45.929,ratings,2022.1.1,Win32,60.05645307
1.105499531,2.4918,0.81596394,3.3506,0,145,145,39,1,82_43f4d5aec7c2e5bd495473f6708a0f2d47c9fe34e1fe9436646cb036_blur.jpg,2.022756,0.505688,blurring,riri0610,2022-06-13_12h34.45.929,ratings,2022.1.1,Win32,60.05645307
1.947784888,2.178,1.842499219,2.8991,0,146,146,526,1,877_cab3efed0c9ff4552037df6c1ea4ea9713f915c94592a14dbf2799da_circblurint.jpg,3.174604,0.3174604,circularblurringint,riri0610,2022-06-13_12h34.45.929,ratings,2022.1.1,Win32,60.05645307
-3.040123711,3.3864,-2.000427723,4.5817,0,147,147,357,1,500_3b520c7f352afa1a9f8c07e56cc0588cdc04d25ff6e7b602b5e280cb_blur.jpg,-0.8328,3.11766,blurring,riri0610,2022-06-13_12h34.45.929,ratings,2022.1.1,Win32,60.05645307
-2.803230954,2.1301,-2.184677645,2.9785,0,148,148,134,1,349_8809a67686d34844c915d7700e2ea72ad1c02ae232ae0d3cc0e458d4_edges.jpg,-3.619048,-0.2857144,edges,riri0610,2022-06-13_12h34.45.929,ratings,2022.1.1,Win32,60.05645307
-3.461266389,1.7349,-3.066445128,8.8709,0,149,149,244,1,411_adfd0d5782129756321ff671d0cfb712528504c66c863df11aabd1e7_circblurint.jpg,-3.392332,-1.369576,circularblurringint,riri0610,2022-06-13_12h34.45.929,ratings,2022.1.1,Win32,60.05645307
-1.803017092,1.6664,-1.618767171,2.4995,0,150,150,143,1,353_44e285740cb41818482ac93fc5fbd72c18029444a1d7506c9fc053e7_circblurext.jpg,-3.232676,-0.87108,circularblurringext,riri0610,2022-06-13_12h34.45.929,ratings,2022.1.1,Win32,60.05645307
1.342392288,3.1996,1.395035123,3.8726,0,151,151,380,1,640_0ddb4981a5f5842ed5b4f7ef941be53779189df5e718b1fc5475ad80_edges.jpg,2.571428,-1.873016,edges,riri0610,2022-06-13_12h34.45.929,ratings,2022.1.1,Win32,60.05645307
1.039695988,3.2073,-1.473999375,4.1068,0,152,152,168,1,365_45a719cabbc9aa308c4fcb30d529489c6966ac4073874af84f665c61_orig.jpg,2.507936,-1.968252,original,riri0610,2022-06-13_12h34.45.929,ratings,2022.1.1,Win32,60.05645307
1.566124336,1.6521,-1.066017405,3.9089,0,153,153,40,1,82_43f4d5aec7c2e5bd495473f6708a0f2d47c9fe34e1fe9436646cb036_circblurint.jpg,2.022756,0.505688,circularblurringint,riri0610,2022-06-13_12h34.45.929,ratings,2022.1.1,Win32,60.05645307
0.750160396,1.4925,0.394821261,3.6661,0,154,154,448,1,709_69c01dcde028a2a1a913f1a2a5026ae1748484f75c89217a040c6791_circblurint.jpg,1.432444,-0.01935732,circularblurringint,riri0610,2022-06-13_12h34.45.929,ratings,2022.1.1,Win32,60.05645307
0.829124648,6.2113,-2.197838354,7.9748,0,155,155,581,1,1061_665178b9cb0bc869cc2e2b68def4838db04e66f9531098fb75875a09_circblurext.jpg,0.3492064,-0.3174604,circularblurringext,riri0610,2022-06-13_12h34.45.929,ratings,2022.1.1,Win32,60.05645307
-0.6053926,2.4668,-2.23732048,3.4333,0,156,156,309,1,455_34a7d8167619d110206c369e3f7dce8a3f99db763a9d8e2b956501d3_blur.jpg,-2.526412,-0.3827896,blurring,riri0610,2022-06-13_12h34.45.929,ratings,2022.1.1,Win32,60.05645307
-1.263428036,3.4652,0.434303387,4.6744,0,157,157,388,1,646_577760d718dab44c6f04d77408c5644a120065ce07a9503957d0850a_circblurint.jpg,-2.690668,2.61324,circularblurringint,riri0610,2022-06-13_12h34.45.929,ratings,2022.1.1,Win32,60.05645307
0.723838979,1.5953,0.447464096,2.2923,0,158,158,444,1,709_69c01dcde028a2a1a913f1a2a5026ae1748484f75c89217a040c6791_orig.jpg,1.432444,-0.01935732,original,riri0610,2022-06-13_12h34.45.929,ratings,2022.1.1,Win32,60.05645307
0.250053465,8.375,-2.276802606,7.514,0,159,159,550,1,1010_06d15f44b979c086561137000ec070ba4cd479856f92840a7850b2bf_circblurint.jpg,0.189786,-0.189786,circularblurringint,riri0610,2022-06-13_12h34.45.929,ratings,2022.1.1,Win32,60.05645307
-0.750160396,3.1771,-0.3026963,5.2665,0,160,160,211,1,394_8e3a0cb945144d53bd1ace04b6256237ed9dcbbd9cb83f8a4886b0e6_bw.jpg,-2.593884,2.651956,blackwhite,riri0610,2022-06-13_12h34.45.929,ratings,2022.1.1,Win32,60.05645307
-1.895142053,3.2804,0.736999687,4.1886,0,161,161,106,1,284_cdcbd54fc995081ac95c8b2c37a19cebb341f61a8eb268cee1623492_circblurint.jpg,-1.015872,2.095236,circularblurringint,riri0610,2022-06-13_12h34.45.929,ratings,2022.1.1,Win32,60.05645307
-0.421142679,4.7727,-3.105927254,6.5039,0,162,162,312,1,459_46e25de472bb056cb470716d30937415f7344bfc4354d6eb710d8c9f_orig.jpg,0.03174604,0.0,original,riri0610,2022-06-13_12h34.45.929,ratings,2022.1.1,Win32,60.05645307
-1.171303075,2.5572,-2.276802606,3.7718,0,163,163,308,1,455_34a7d8167619d110206c369e3f7dce8a3f99db763a9d8e2b956501d3_edges.jpg,-2.526412,-0.3827896,edges,riri0610,2022-06-13_12h34.45.929,ratings,2022.1.1,Win32,60.05645307
0.434303387,5.6592,-2.13203481,4.4183,0,164,164,202,1,380_34772591c787182a37724027eac6948ebc9d4064f6a601d23b923b8e_circblurint.jpg,2.222224,-0.063492,circularblurringint,riri0610,2022-06-13_12h34.45.929,ratings,2022.1.1,Win32,60.05645307
-2.013588432,2.0452,0.078964252,2.9019,0,165,165,142,1,353_44e285740cb41818482ac93fc5fbd72c18029444a1d7506c9fc053e7_circblurint.jpg,-3.232676,-0.87108,circularblurringint,riri0610,2022-06-13_12h34.45.929,ratings,2022.1.1,Win32,60.05645307
-3.566552059,1.5346,-0.81596394,4.6649,0,166,166,246,1,414_0187bdf7007109b487865b6a9d388997a6817acf052a6a7cdd5b39d9_orig.jpg,-2.786708,-1.133056,original,riri0610,2022-06-13_12h34.45.929,ratings,2022.1.1,Win32,60.05645307
1.750374258,1.489,1.447677957,2.6544,0,167,167,17,1,39_2fafccaa4dc69045a05845f59c6b3cd2edcf7e0e0c108b24e553afe0_circblurext.jpg,2.022756,0.463548,circularblurringext,riri0610,2022-06-13_12h34.45.929,ratings,2022.1.1,Win32,60.05645307
0.236892757,4.0981,-2.461052528,4.8311,0,168,168,560,1,1022_cf035e583d41a856836f8b0ae314ecbe79dffd9e40ef6a08cc26028f_edges.jpg,-0.2516452,3.05846,edges,riri0610,2022-06-13_12h34.45.929,ratings,2022.1.1,Win32,60.05645307
-3.342820011,1.7761,-0.81596394,3.7225,0,169,169,492,1,824_b1d91cc824ce0d3d383d3147da88d3d6dbaf6be918bab79e3ec8f501_orig.jpg,-3.645176,-1.432784,original,riri0610,2022-06-13_12h34.45.929,ratings,2022.1.1,Win32,60.05645307
0.157928504,2.4584,-3.171730798,4.1408,0,170,170,91,1,258_d26019382777d2159a974a7654923e71598135ce2cd710cea1f92865_bw.jpg,3.497684,-0.61104,blackwhite,riri0610,2022-06-13_12h34.45.929,ratings,2022.1.1,Win32,60.05645307
0.71067827,1.4955,-0.144767796,2.7844,0,171,171,99,1,267_792043debad81ce271cec5b3c3bd9d264efc13f362bec9c7a3f72fe7_blur.jpg,1.980616,0.2107036,blurring,riri0610,2022-06-13_12h34.45.929,ratings,2022.1.1,Win32,60.05645307
-1.82933851,2.3352,-3.303337885,4.8342,0,172,172,258,1,416_8a1f874e0057d67a4e6955865ba88b2d8ce2c8b4469589307687a723_orig.jpg,-1.753336,3.088264,original,riri0610,2022-06-13_12h34.45.929,ratings,2022.1.1,Win32,60.05645307
1.987267014,2.0012,-1.395035123,2.9666,0,173,173,503,1,854_081a8409e4d6d10923b2dedcc16a3fca405fcd602e55a20d84cac69d_circblurext.jpg,3.088264,1.21538,circularblurringext,riri0610,2022-06-13_12h34.45.929,ratings,2022.1.1,Win32,60.05645307
1.605606462,1.4865,-0.013160709,2.129,0,174,174,228,1,407_578d31d32e806706dde2563213f130b90e621abfed0e47ecabd85d27_orig.jpg,3.5873,-0.444444,original,riri0610,2022-06-13_12h34.45.929,ratings,2022.1.1,Win32,60.05645307
0.421142679,2.255,-1.355552997,3.5023,0,175,175,565,1,1037_e2eb929a6de79a63ce6cfe5321fcb74a203b134e4094932d90b01d99_bw.jpg,2.651956,0.0,blackwhite,riri0610,2022-06-13_12h34.45.929,ratings,2022.1.1,Win32,60.05645307
2.421570402,1.8725,2.092552684,2.7857,0,176,176,165,1,361_b5541309527dc3c2422f45a95ebb0ed32005e6fe10d0489a1ff1fbdc_blur.jpg,-3.987612,-0.2516452,blurring,riri0610,2022-06-13_12h34.45.929,ratings,2022.1.1,Win32,60.05645307
-1.000213862,4.293,-3.066445128,5.9924,0,177,177,235,1,410_9633c4ff6e8888fcfca59a60ca86e9606d3e0736500a254101bdf295_bw.jpg,-0.3677892,2.981028,blackwhite,riri0610,2022-06-13_12h34.45.929,ratings,2022.1.1,Win32,60.05645307
-1.026535279,10.2225,-3.184891506,11.9038,0,178,178,84,1,243_beddb302dcb21071d88c8d2cab07002050d36b3001ef28f89389fa56_orig.jpg,-0.3450656,-0.2070392,original,riri0610,2022-06-13_12h34.45.929,ratings,2022.1.1,Win32,60.05645307
-0.973892444,9.9352,-3.35598072,9.0016,0,179,179,417,1,692_7d7eaf20e6de8956f0fca7500ace97a8599aa8b605a7d690cdb28724_blur.jpg,-2.063492,-1.26984,blurring,riri0610,2022-06-13_12h34.45.929,ratings,2022.1.1,Win32,60.05645307
0.960731735,1.8095,-1.921463471,3.4235,0,180,180,579,1,1061_665178b9cb0bc869cc2e2b68def4838db04e66f9531098fb75875a09_blur.jpg,0.3492064,-0.3174604,blurring,riri0610,2022-06-13_12h34.45.929,ratings,2022.1.1,Win32,60.05645307
-1.01337457,7.1522,-2.02674914,8.8007,0,181,181,593,1,1228_557412d34d6a70b7c5d222e030aa485b351a4574e8ba1a3112d1d13d_circblurext.jpg,2.137444,0.703464,circularblurringext,riri0610,2022-06-13_12h34.45.929,ratings,2022.1.1,Win32,60.05645307
-3.632355602,4.1221,-3.566552059,5.6459,0,182,182,319,1,460_e06b3af7ff2f2bfb5f9b6e3d5dc25b9aaa40b84823fac8fd934621bd_bw.jpg,-3.430992,-1.607468,blackwhite,riri0610,2022-06-13_12h34.45.929,ratings,2022.1.1,Win32,60.05645307
-1.066017405,2.0272,-2.803230954,3.6265,0,183,183,418,1,692_7d7eaf20e6de8956f0fca7500ace97a8599aa8b605a7d690cdb28724_circblurint.jpg,-2.063492,-1.26984,circularblurringint,riri0610,2022-06-13_12h34.45.929,ratings,2022.1.1,Win32,60.05645307
0.750160396,1.5521,-0.092124961,4.4173,0,184,184,471,1,741_2b218fb015e3da83db73cacdb52e61e0c2534c1fe255bb1c5c74d47f_blur.jpg,3.140096,0.448584,blurring,riri0610,2022-06-13_12h34.45.929,ratings,2022.1.1,Win32,60.05645307
-1.092338822,1.6453,-1.000213862,5.9229,0,185,185,384,1,646_577760d718dab44c6f04d77408c5644a120065ce07a9503957d0850a_orig.jpg,-2.690668,2.61324,original,riri0610,2022-06-13_12h34.45.929,ratings,2022.1.1,Win32,60.05645307
0.934410318,4.3376,-2.000427723,5.1994,0,186,186,55,1,137_0e6a04243c0a42a5e2528a2d181255ca2a4b7bd6e7978c5c2059c69f_bw.jpg,-0.95238,2.095236,blackwhite,riri0610,2022-06-13_12h34.45.929,ratings,2022.1.1,Win32,60.05645307
2.145195519,1.9194,0.526428348,4.5144,0,187,187,506,1,855_66d893451dfd1e7615132071c6c8a82b02dc2b37781cd89400883b26_edges.jpg,2.69484,0.2143624,edges,riri0610,2022-06-13_12h34.45.929,ratings,2022.1.1,Win32,60.05645307
0.908088901,4.5217,-1.329231579,5.8471,0,188,188,338,1,492_a1a4d288d3bc486c83c3b6a835c42891989f5ba781633932298a7676_edges.jpg,3.406892,-0.44522,edges,riri0610,2022-06-13_12h34.45.929,ratings,2022.1.1,Win32,60.05645307
0.157928504,3.2531,-2.092552684,5.7271,0,189,189,282,1,440_dc6413e2b65369ee2587f4d85621742fe4ca87392d0a8ad2ea7d94e3_orig.jpg,-3.016216,1.69404,original,riri0610,2022-06-13_12h34.45.929,ratings,2022.1.1,Win32,60.05645307
1.895142053,2.2334,2.000427723,3.275,0,190,190,182,1,369_98db62a1bdabfd1bc551180da6658005b461585cd21614633cf76470_edges.jpg,2.190476,-0.03174604,edges,riri0610,2022-06-13_12h34.45.929,ratings,2022.1.1,Win32,60.05645307
0.039482126,2.3763,-2.13203481,4.6719,0,191,191,530,1,915_dc9fd40a3b5d64a180833a7bac86e7556c24f681f473fe255e41f936_edges.jpg,-3.09294,-0.918696,edges,riri0610,2022-06-13_12h34.45.929,ratings,2022.1.1,Win32,60.05645307
1.131820949,6.6111,-0.026321417,8.9763,0,192,192,101,1,267_792043debad81ce271cec5b3c3bd9d264efc13f362bec9c7a3f72fe7_circblurext.jpg,1.980616,0.2107036,circularblurringext,riri0610,2022-06-13_12h34.45.929,ratings,2022.1.1,Win32,60.05645307
2.382088275,6.0781,0.973892444,8.362,0,193,193,26,1,59_8568373b727f29d67ba6ce4c360dd918c8b08b13495fca56bdda5e82_edges.jpg,2.064896,0.505688,edges,riri0610,2022-06-13_12h34.45.929,ratings,2022.1.1,Win32,60.05645307
1.921463471,1.8319,0.289535591,2.6924,0,194,194,118,1,332_4d584229bdae2e1782f77f0e953e528f13c3dfa79b4b94736c0310fa_circblurint.jpg,3.157348,0.483092,circularblurringint,riri0610,2022-06-13_12h34.45.929,ratings,2022.1.1,Win32,60.05645307
1.026535279,1.6277,-1.960945597,2.3213,0,195,195,509,1,855_66d893451dfd1e7615132071c6c8a82b02dc2b37781cd89400883b26_circblurext.jpg,2.69484,0.2143624,circularblurringext,riri0610,2022-06-13_12h34.45.929,ratings,2022.1.1,Win32,60.05645307
-0.026321417,1.6182,-1.710892132,2.6003,0,196,196,374,1,620_9674719009d75dcfeaed7f15932c43e1fd1af5e25d47b8aadd61efe2_edges.jpg,-0.561364,1.142084,edges,riri0610,2022-06-13_12h34.45.929,ratings,2022.1.1,Win32,60.05645307
0.276374883,5.2212,0.052642835,8.5346,0,197,197,434,1,694_f80f33613b268beffd6c044537cf3b44a84683d6e889bc37b8e9c34b_edges.jpg,-0.3785616,3.34728,edges,riri0610,2022-06-13_12h34.45.929,ratings,2022.1.1,Win32,60.05645307
1.263428036,4.8898,1.302910162,5.7556,0,198,198,254,1,416_5eb54976bb41ce2a6d129ef985f792e716f010fb9b69b15f50f5d2db_edges.jpg,-2.58766,2.602972,edges,riri0610,2022-06-13_12h34.45.929,ratings,2022.1.1,Win32,60.05645307
-0.868606774,2.164,-2.73742741,3.5628,0,199,199,102,1,284_cdcbd54fc995081ac95c8b2c37a19cebb341f61a8eb268cee1623492_orig.jpg,-1.015872,2.095236,original,riri0610,2022-06-13_12h34.45.929,ratings,2022.1.1,Win32,60.05645307
1.184463783,2.2578,-1.921463471,4.0556,0,200,200,408,1,687_e3b018945792a574962235c88c553b7c318c75eec2596478e8a7b877_orig.jpg,3.63918,-0.42586,original,riri0610,2022-06-13_12h34.45.929,ratings,2022.1.1,Win32,60.05645307
1.01337457,1.6692,-1.855659927,2.6838,0,201,201,517,1,860_05c4e22518a30d3d2add458a8fc6488f87b9b02dd8e385ded939f025_bw.jpg,1.955092,0.3097172,blackwhite,riri0610,2022-06-13_12h34.45.929,ratings,2022.1.1,Win32,60.05645307
0.039482126,2.925,-1.763534966,4.2733,0,202,202,252,1,416_5eb54976bb41ce2a6d129ef985f792e716f010fb9b69b15f50f5d2db_orig.jpg,-2.58766,2.602972,original,riri0610,2022-06-13_12h34.45.929,ratings,2022.1.1,Win32,60.05645307
-3.026963002,2.128,2.013588432,3.3319,0,203,203,355,1,500_3b520c7f352afa1a9f8c07e56cc0588cdc04d25ff6e7b602b5e280cb_bw.jpg,-0.8328,3.11766,blackwhite,riri0610,2022-06-13_12h34.45.929,ratings,2022.1.1,Win32,60.05645307
0.276374883,1.6996,-1.210785201,3.4239,0,204,204,545,1,1005_b980c0747d20935bc63cc27a9e05ce2ff5bae98f859872ec48edd7f5_circblurext.jpg,3.428572,-0.476192,circularblurringext,riri0610,2022-06-13_12h34.45.929,ratings,2022.1.1,Win32,60.05645307
-0.789642522,2.617,-1.710892132,3.5831,0,205,205,561,1,1022_cf035e583d41a856836f8b0ae314ecbe79dffd9e40ef6a08cc26028f_blur.jpg,-0.2516452,3.05846,blurring,riri0610,2022-06-13_12h34.45.929,ratings,2022.1.1,Win32,60.05645307
0.131607087,3.3833,-2.382088275,4.6494,0,206,206,8,1,28_6318543b74eeb646a1735477ebc023fdc9ac3849bc0db1957c272a26_edges.jpg,2.811244,-0.74584,edges,riri0610,2022-06-13_12h34.45.929,ratings,2022.1.1,Win32,60.05645307
1.671410005,1.9406,0.539589057,2.7415,0,207,207,573,1,1039_d64da8480fc6e94dcdc513237d600570ae0b9fe48795ac6a8b2d29a7_blur.jpg,-2.507936,-1.142856,blurring,riri0610,2022-06-13_12h34.45.929,ratings,2022.1.1,Win32,60.05645307
0.394821261,1.6664,-1.513481501,3.564,0,208,208,505,1,855_66d893451dfd1e7615132071c6c8a82b02dc2b37781cd89400883b26_bw.jpg,2.69484,0.2143624,blackwhite,riri0610,2022-06-13_12h34.45.929,ratings,2022.1.1,Win32,60.05645307
0.355339135,3.044,0.118446378,3.8932,0,209,209,45,1,92_5d20d78a8e57e628c6930676473a4e0a485e715841efd6286c660020_blur.jpg,2.126984,0.0,blurring,riri0610,2022-06-13_12h34.45.929,ratings,2022.1.1,Win32,60.05645307
-1.803017092,8.4732,0.500106931,11.5171,0,210,210,515,1,858_2f6539ee36aba48c38dc716d4f7c3ae93367d6ddf23ab41745d4172c_circblurext.jpg,0.0623832,0.176752,circularblurringext,riri0610,2022-06-13_12h34.45.929,ratings,2022.1.1,Win32,60.05645307
3.44810568,3.5984,2.934838041,4.3634,0,211,211,407,1,686_6745b57686ad5d1bd6cf3e7ed5bc0243a154f8939e88e30321dfcfdb_circblurext.jpg,-1.523808,3.650792,circularblurringext,riri0610,2022-06-13_12h34.45.929,ratings,2022.1.1,Win32,60.05645307
-3.461266389,1.7909,-1.197624492,2.4855,0,212,212,331,1,482_a1cd28915c5044c018195ab0fff10dcc95e385246b045a7cd4463ff7_bw.jpg,-3.361852,-1.555612,blackwhite,riri0610,2022-06-13_12h34.45.929,ratings,2022.1.1,Win32,60.05645307
0.802803231,4.1038,0.394821261,4.7827,0,213,213,20,1,48_2cc936b2483ab2944c9158e163342b874ef6c1492fd8fca08c0e096e_edges.jpg,-1.264224,-0.779604,edges,riri0610,2022-06-13_12h34.45.929,ratings,2022.1.1,Win32,60.05645307
1.171303075,2.652,-1.289749453,3.5436,0,214,214,456,1,720_483c541c48959a597fcf44320941afaf8b7695105f90d65b5f6b30f2_orig.jpg,2.158732,-0.2539684,original,riri0610,2022-06-13_12h34.45.929,ratings,2022.1.1,Win32,60.05645307
1.197624492,1.5291,-1.460838666,2.3721,0,215,215,352,1,498_305b74cdc4784d9d25e72724302e5402def70177ea31ae7e25fab66b_circblurint.jpg,3.04762,-0.444444,circularblurringint,riri0610,2022-06-13_12h34.45.929,ratings,2022.1.1,Win32,60.05645307
-0.644874727,3.0792,-0.750160396,3.8407,0,216,216,21,1,48_2cc936b2483ab2944c9158e163342b874ef6c1492fd8fca08c0e096e_blur.jpg,-1.264224,-0.779604,blurring,riri0610,2022-06-13_12h34.45.929,ratings,2022.1.1,Win32,60.05645307
1.947784888,3.6027,1.868820636,4.2723,0,217,217,184,1,369_98db62a1bdabfd1bc551180da6658005b461585cd21614633cf76470_circblurint.jpg,2.190476,-0.03174604,circularblurringint,riri0610,2022-06-13_12h34.45.929,ratings,2022.1.1,Win32,60.05645307
1.144981657,1.7044,-0.881767483,3.3038,0,218,218,500,1,854_081a8409e4d6d10923b2dedcc16a3fca405fcd602e55a20d84cac69d_edges.jpg,3.088264,1.21538,edges,riri0610,2022-06-13_12h34.45.929,ratings,2022.1.1,Win32,60.05645307
1.342392288,4.8142,-1.52664221,5.9943,0,219,219,540,1,1005_b980c0747d20935bc63cc27a9e05ce2ff5bae98f859872ec48edd7f5_orig.jpg,3.428572,-0.476192,original,riri0610,2022-06-13_12h34.45.929,ratings,2022.1.1,Win32,60.05645307
1.381874414,1.4448,-0.013160709,4.2849,0,220,220,149,1,354_e46c3ec6fb00773f64f2bcd212385f253c389808fe724b7cf8611051_circblurext.jpg,2.018292,0.0,circularblurringext,riri0610,2022-06-13_12h34.45.929,ratings,2022.1.1,Win32,60.05645307
-1.066017405,3.2101,-1.42135654,4.2012,0,221,221,195,1,379_eeaa6d9bf5a4ef205dc48bc505cf3a7f24ea86e99af9b371e03602a7_blur.jpg,-0.3926308,2.88936,blurring,riri0610,2022-06-13_12h34.45.929,ratings,2022.1.1,Win32,60.05645307
-0.697517561,1.6551,-1.697731423,2.4864,0,222,222,92,1,258_d26019382777d2159a974a7654923e71598135ce2cd710cea1f92865_edges.jpg,3.497684,-0.61104,edges,riri0610,2022-06-13_12h34.45.929,ratings,2022.1.1,Win32,60.05645307
0.171089213,6.2993,-0.565910474,4.5589,0,223,223,90,1,258_d26019382777d2159a974a7654923e71598135ce2cd710cea1f92865_orig.jpg,3.497684,-0.61104,original,riri0610,2022-06-13_12h34.45.929,ratings,2022.1.1,Win32,60.05645307
0.486946222,1.7263,-0.908088901,3.086,0,224,224,454,1,716_2ab64478147184c4df720a52cf621875addc9007cb2967e4a9a88909_circblurint.jpg,2.428484,0.0,circularblurringint,riri0610,2022-06-13_12h34.45.929,ratings,2022.1.1,Win32,60.05645307
-0.855446066,8.0136,-3.000641585,5.2173,0,225,225,440,1,700_59cb565f134f1afd066d7b6d936c6511b7cb76de0e9cbb5ce15124ad_edges.jpg,0.0,0.0,edges,riri0610,2022-06-13_12h34.45.929,ratings,2022.1.1,Win32,60.05645307
0.381660552,5.932,-0.131607087,6.9469,0,226,226,293,1,442_7449d79dae5d652af9b2429872cabdef938646ba024db2f431b3b28d_circblurext.jpg,1.619048,0.126984,circularblurringext,riri0610,2022-06-13_12h34.45.929,ratings,2022.1.1,Win32,60.05645307
-1.144981657,1.1967,-1.210785201,4.3407,0,227,227,558,1,1022_cf035e583d41a856836f8b0ae314ecbe79dffd9e40ef6a08cc26028f_orig.jpg,-0.2516452,3.05846,original,riri0610,2022-06-13_12h34.45.929,ratings,2022.1.1,Win32,60.05645307
-3.053284419,1.8288,0.526428348,3.7257,0,228,228,571,1,1039_d64da8480fc6e94dcdc513237d600570ae0b9fe48795ac6a8b2d29a7_bw.jpg,-2.507936,-1.142856,blackwhite,riri0610,2022-06-13_12h34.45.929,ratings,2022.1.1,Win32,60.05645307
0.368499844,3.7442,-2.303124023,5.4573,0,229,229,59,1,137_0e6a04243c0a42a5e2528a2d181255ca2a4b7bd6e7978c5c2059c69f_circblurext.jpg,-0.95238,2.095236,circularblurringext,riri0610,2022-06-13_12h34.45.929,ratings,2022.1.1,Win32,60.05645307
-0.40798197,15.6974,-3.053284419,20.7885,0,230,230,7,1,28_6318543b74eeb646a1735477ebc023fdc9ac3849bc0db1957c272a26_bw.jpg,2.811244,-0.74584,blackwhite,riri0610,2022-06-13_12h34.45.929,ratings,2022.1.1,Win32,60.05645307
1.960945597,1.2866,2.513695362,2.4346,0,231,231,183,1,369_98db62a1bdabfd1bc551180da6658005b461585cd21614633cf76470_blur.jpg,2.190476,-0.03174604,blurring,riri0610,2022-06-13_12h34.45.929,ratings,2022.1.1,Win32,60.05645307
-0.658035435,9.6478,-1.473999375,10.5112,0,232,232,152,1,355_00a76f54934d36566dd0e7b091b8aa6a56d8e6b32d349aa578a10b45_edges.jpg,2.910052,0.3439152,edges,riri0610,2022-06-13_12h34.45.929,ratings,2022.1.1,Win32,60.05645307
-0.987053153,2.8027,-2.224159771,3.9823,0,233,233,320,1,460_e06b3af7ff2f2bfb5f9b6e3d5dc25b9aaa40b84823fac8fd934621bd_edges.jpg,-3.430992,-1.607468,edges,riri0610,2022-06-13_12h34.45.929,ratings,2022.1.1,Win32,60.05645307
0.855446066,2.5678,-1.171303075,3.9176,0,234,234,435,1,694_f80f33613b268beffd6c044537cf3b44a84683d6e889bc37b8e9c34b_blur.jpg,-0.3785616,3.34728,blurring,riri0610,2022-06-13_12h34.45.929,ratings,2022.1.1,Win32,60.05645307
2.02674914,1.9326,1.131820949,3.8249,0,235,235,24,1,59_8568373b727f29d67ba6ce4c360dd918c8b08b13495fca56bdda5e82_orig.jpg,2.064896,0.505688,original,riri0610,2022-06-13_12h34.45.929,ratings,2022.1.1,Win32,60.05645307
1.066017405,2.1436,-1.223945909,3.873,0,236,236,150,1,355_00a76f54934d36566dd0e7b091b8aa6a56d8e6b32d349aa578a10b45_orig.jpg,2.910052,0.3439152,original,riri0610,2022-06-13_12h34.45.929,ratings,2022.1.1,Win32,60.05645307
-2.763748828,2.5146,-1.066017405,3.9356,0,237,237,242,1,411_adfd0d5782129756321ff671d0cfb712528504c66c863df11aabd1e7_edges.jpg,-3.392332,-1.369576,edges,riri0610,2022-06-13_12h34.45.929,ratings,2022.1.1,Win32,60.05645307
-0.513267639,2.1349,-0.973892444,4.0974,0,238,238,214,1,394_8e3a0cb945144d53bd1ace04b6256237ed9dcbbd9cb83f8a4886b0e6_circblurint.jpg,-2.593884,2.651956,circularblurringint,riri0610,2022-06-13_12h34.45.929,ratings,2022.1.1,Win32,60.05645307
-0.987053153,3.2804,-1.974106306,5.1726,0,239,239,371,1,616_05a637f5281666f53d4e2ef69351485fc21d629b37ee2006b2076eb6_circblurext.jpg,-2.380952,-0.832364,circularblurringext,riri0610,2022-06-13_12h34.45.929,ratings,2022.1.1,Win32,60.05645307
-3.55339135,2.6793,-0.184249922,6.9554,0,240,240,162,1,361_b5541309527dc3c2422f45a95ebb0ed32005e6fe10d0489a1ff1fbdc_orig.jpg,-3.987612,-0.2516452,original,riri0610,2022-06-13_12h34.45.929,ratings,2022.1.1,Win32,60.05645307
-1.144981657,2.4671,-3.382302137,3.5588,0,241,241,372,1,620_9674719009d75dcfeaed7f15932c43e1fd1af5e25d47b8aadd61efe2_orig.jpg,-0.561364,1.142084,original,riri0610,2022-06-13_12h34.45.929,ratings,2022.1.1,Win32,60.05645307
1.789856384,9.146,-2.224159771,10.8188,0,242,242,80,1,242_85283f6935a89812ab229dcad9ba184529c9242ac3106d768ecf3ab3_edges.jpg,2.14918,-0.2949852,edges,riri0610,2022-06-13_12h34.45.929,ratings,2022.1.1,Win32,60.05645307
-3.158570089,1.6226,1.473999375,3.105,0,243,243,332,1,482_a1cd28915c5044c018195ab0fff10dcc95e385246b045a7cd4463ff7_edges.jpg,-3.361852,-1.555612,edges,riri0610,2022-06-13_12h34.45.929,ratings,2022.1.1,Win32,60.05645307
0.736999687,1.7528,-2.224159771,3.367,0,244,244,313,1,459_46e25de472bb056cb470716d30937415f7344bfc4354d6eb710d8c9f_bw.jpg,0.03174604,0.0,blackwhite,riri0610,2022-06-13_12h34.45.929,ratings,2022.1.1,Win32,60.05645307
0.210571339,2.1279,-1.066017405,3.243,0,245,245,291,1,442_7449d79dae5d652af9b2429872cabdef938646ba024db2f431b3b28d_blur.jpg,1.619048,0.126984,blurring,riri0610,2022-06-13_12h34.45.929,ratings,2022.1.1,Win32,60.05645307
1.552963627,2.1446,-1.381874414,2.993,0,246,246,564,1,1037_e2eb929a6de79a63ce6cfe5321fcb74a203b134e4094932d90b01d99_orig.jpg,2.651956,0.0,original,riri0610,2022-06-13_12h34.45.929,ratings,2022.1.1,Win32,60.05645307
1.658249297,1.917,-1.592445753,2.7471,0,247,247,461,1,720_483c541c48959a597fcf44320941afaf8b7695105f90d65b5f6b30f2_circblurext.jpg,2.158732,-0.2539684,circularblurringext,riri0610,2022-06-13_12h34.45.929,ratings,2022.1.1,Win32,60.05645307
1.789856384,3.5727,0.460624805,4.3839,0,248,248,52,1,112_b6a4ce721c2e42943d7d8b168751d74cd2f372b1cd4fed5a4404faec_circblurint.jpg,2.107036,0.505688,circularblurringint,riri0610,2022-06-13_12h34.45.929,ratings,2022.1.1,Win32,60.05645307
1.329231579,1.401,-1.092338822,3.8157,0,249,249,97,1,267_792043debad81ce271cec5b3c3bd9d264efc13f362bec9c7a3f72fe7_bw.jpg,1.980616,0.2107036,blackwhite,riri0610,2022-06-13_12h34.45.929,ratings,2022.1.1,Win32,60.05645307
-2.632141741,1.4704,-2.02674914,2.4343,0,250,250,250,1,414_0187bdf7007109b487865b6a9d388997a6817acf052a6a7cdd5b39d9_circblurint.jpg,-2.786708,-1.133056,circularblurringint,riri0610,2022-06-13_12h34.45.929,ratings,2022.1.1,Win32,60.05645307
0.671196144,1.4849,-1.395035123,2.8829,0,251,251,450,1,716_2ab64478147184c4df720a52cf621875addc9007cb2967e4a9a88909_orig.jpg,2.428484,0.0,original,riri0610,2022-06-13_12h34.45.929,ratings,2022.1.1,Win32,60.05645307
0.697517561,6.0186,-1.105499531,6.902,0,252,252,94,1,258_d26019382777d2159a974a7654923e71598135ce2cd710cea1f92865_circblurint.jpg,3.497684,-0.61104,circularblurringint,riri0610,2022-06-13_12h34.45.929,ratings,2022.1.1,Win32,60.05645307
1.276588744,1.5868,0.223732048,2.3506,0,253,253,175,1,368_6507b94d7d0199f14efd3706db30c9c44b96085f84e9cc7792e3e0ae_bw.jpg,1.959544,0.400336,blackwhite,riri0610,2022-06-13_12h34.45.929,ratings,2022.1.1,Win32,60.05645307
-2.908516624,1.3586,2.342606149,4.7461,0,254,254,334,1,482_a1cd28915c5044c018195ab0fff10dcc95e385246b045a7cd4463ff7_circblurint.jpg,-3.361852,-1.555612,circularblurringint,riri0610,2022-06-13_12h34.45.929,ratings,2022.1.1,Win32,60.05645307
1.42135654,3.1978,0.065803544,6.0824,0,255,255,519,1,860_05c4e22518a30d3d2add458a8fc6488f87b9b02dd8e385ded939f025_blur.jpg,1.955092,0.3097172,blurring,riri0610,2022-06-13_12h34.45.929,ratings,2022.1.1,Win32,60.05645307
1.52664221,1.3171,0.552749766,2.3955,0,256,256,72,1,236_f645730e1eb06155418c9a571329cc7fa320654fcaaedf1048b5cc11_orig.jpg,2.253968,0.0,original,riri0610,2022-06-13_12h34.45.929,ratings,2022.1.1,Win32,60.05645307
-3.829766233,1.399,-3.369141428,1.9532,0,257,257,318,1,460_e06b3af7ff2f2bfb5f9b6e3d5dc25b9aaa40b84823fac8fd934621bd_orig.jpg,-3.430992,-1.607468,original,riri0610,2022-06-13_12h34.45.929,ratings,2022.1.1,Win32,60.05645307
-2.513695362,2.1107,1.52664221,3.2112,0,258,258,420,1,692_e3e3bf88684fbbcdb9849a4147f9e2fcd39b0f083554a829aca4e9fa_orig.jpg,-0.44522,3.135888,original,riri0610,2022-06-13_12h34.45.929,ratings,2022.1.1,Win32,60.05645307
1.82933851,2.1546,0.921249609,3.3693,0,259,259,186,1,369_c99797771115d7627d4abe3415f814497288f91a7be1a04c17c776b9_orig.jpg,3.619824,-0.174216,original,riri0610,2022-06-13_12h34.45.929,ratings,2022.1.1,Win32,60.05645307
2.263641897,1.5744,2.171516936,3.2737,0,260,260,13,1,39_2fafccaa4dc69045a05845f59c6b3cd2edcf7e0e0c108b24e553afe0_bw.jpg,2.022756,0.463548,blackwhite,riri0610,2022-06-13_12h34.45.929,ratings,2022.1.1,Win32,60.05645307
-3.171730798,1.784,-2.329445441,2.4843,0,261,261,572,1,1039_d64da8480fc6e94dcdc513237d600570ae0b9fe48795ac6a8b2d29a7_edges.jpg,-2.507936,-1.142856,edges,riri0610,2022-06-13_12h34.45.929,ratings,2022.1.1,Win32,60.05645307
1.947784888,3.6199,0.565910474,2.5191,0,262,262,113,1,293_3dfdfafc0c6a54b2da7453750ac281f7718c0b3337b0a74c4563d6bd_circblurext.jpg,-2.574524,2.632596,circularblurringext,riri0610,2022-06-13_12h34.45.929,ratings,2022.1.1,Win32,60.05645307
1.237106618,3.3155,1.408195831,7.9579,0,263,263,296,1,449_9c1e990a3480e5b51430fe76b0188e69ba2468fd6a866b88b2d0dd75_edges.jpg,0.095238,0.03174604,edges,riri0610,2022-06-13_12h34.45.929,ratings,2022.1.1,Win32,60.05645307
1.31607087,1.3837,1.144981657,2.8256,0,264,264,499,1,854_081a8409e4d6d10923b2dedcc16a3fca405fcd602e55a20d84cac69d_bw.jpg,3.088264,1.21538,blackwhite,riri0610,2022-06-13_12h34.45.929,ratings,2022.1.1,Win32,60.05645307
-1.987267014,1.8609,-1.210785201,2.5769,0,265,265,138,1,353_44e285740cb41818482ac93fc5fbd72c18029444a1d7506c9fc053e7_orig.jpg,-3.232676,-0.87108,original,riri0610,2022-06-13_12h34.45.929,ratings,2022.1.1,Win32,60.05645307
1.710892132,4.6617,1.618767171,6.3618,0,266,266,327,1,468_8b69b13120daebadd8a4a3166e1419f2404395cba231307a4efa9fde_blur.jpg,2.031744,0.2539684,blurring,riri0610,2022-06-13_12h34.45.929,ratings,2022.1.1,Win32,60.05645307
1.750374258,1.3837,0.671196144,2.4422,0,267,267,305,1,453_54f106fd1d4b65fa4aa347407127fc30d49f791e81aee3a0bbe44489_circblurext.jpg,2.222224,0.0,circularblurringext,riri0610,2022-06-13_12h34.45.929,ratings,2022.1.1,Win32,60.05645307
-0.71067827,1.5185,-0.736999687,4.8193,0,268,268,206,1,381_5935a9f9796adce2f1539af6c75bcdc0c80d847a2ce9b77cf59b7672_edges.jpg,-1.327432,-0.442476,edges,riri0610,2022-06-13_12h34.45.929,ratings,2022.1.1,Win32,60.05645307
-1.447677957,3.2879,-1.381874414,4.7071,0,269,269,306,1,455_34a7d8167619d110206c369e3f7dce8a3f99db763a9d8e2b956501d3_orig.jpg,-2.526412,-0.3827896,original,riri0610,2022-06-13_12h34.45.929,ratings,2022.1.1,Win32,60.05645307
-1.263428036,2.2393,-1.539802918,3.0144,0,270,270,414,1,692_7d7eaf20e6de8956f0fca7500ace97a8599aa8b605a7d690cdb28724_orig.jpg,-2.063492,-1.26984,original,riri0610,2022-06-13_12h34.45.929,ratings,2022.1.1,Win32,60.05645307
-1.895142053,1.8993,-2.276802606,3.0469,0,271,271,131,1,349_18d92ef5c21ca70a3dd237aad251594e1688bbe01d8cff37b89c46b8_circblurext.jpg,-2.74874,-1.258228,circularblurringext,riri0610,2022-06-13_12h34.45.929,ratings,2022.1.1,Win32,60.05645307
1.01337457,3.2468,-1.895142053,4.0287,0,272,272,267,1,431_ab5a1dbbe9292ac7f74e276cdabcd372e2c1f852ff34bf7cc6646ef8_blur.jpg,3.102584,0.354334,blurring,riri0610,2022-06-13_12h34.45.929,ratings,2022.1.1,Win32,60.05645307
1.447677957,1.6325,-1.671410005,2.7023,0,273,273,412,1,687_e3b018945792a574962235c88c553b7c318c75eec2596478e8a7b877_circblurint.jpg,3.63918,-0.42586,circularblurringint,riri0610,2022-06-13_12h34.45.929,ratings,2022.1.1,Win32,60.05645307
1.460838666,1.4785,0.118446378,2.6213,0,274,274,191,1,369_c99797771115d7627d4abe3415f814497288f91a7be1a04c17c776b9_circblurext.jpg,3.619824,-0.174216,circularblurringext,riri0610,2022-06-13_12h34.45.929,ratings,2022.1.1,Win32,60.05645307
1.105499531,1.702,1.263428036,3.49,0,275,275,482,1,759_95e1c46ed9a337414d5c8eada8fa8b9632e18751f5ce6ed587806e91_edges.jpg,2.126984,0.0,edges,riri0610,2022-06-13_12h34.45.929,ratings,2022.1.1,Win32,60.05645307
-3.237534341,2.461,-2.342606149,4.0454,0,276,276,251,1,414_0187bdf7007109b487865b6a9d388997a6817acf052a6a7cdd5b39d9_circblurext.jpg,-2.786708,-1.133056,circularblurringext,riri0610,2022-06-13_12h34.45.929,ratings,2022.1.1,Win32,60.05645307
0.618553309,3.1166,1.01337457,4.2609,0,277,277,74,1,236_f645730e1eb06155418c9a571329cc7fa320654fcaaedf1048b5cc11_edges.jpg,2.253968,0.0,edges,riri0610,2022-06-13_12h34.45.929,ratings,2022.1.1,Win32,60.05645307
-1.039695988,1.6441,-0.908088901,2.7071,0,278,278,373,1,620_9674719009d75dcfeaed7f15932c43e1fd1af5e25d47b8aadd61efe2_bw.jpg,-0.561364,1.142084,blackwhite,riri0610,2022-06-13_12h34.45.929,ratings,2022.1.1,Win32,60.05645307
1.289749453,1.7888,-1.513481501,2.4013,0,279,279,30,1,60_ad52063167538de24f94d7dfd04808cb94cf8f426c40871d2f126505_orig.jpg,2.158732,0.0,original,riri0610,2022-06-13_12h34.45.929,ratings,2022.1.1,Win32,60.05645307
-2.053070558,2.5675,-1.223945909,3.488,0,280,280,367,1,616_05a637f5281666f53d4e2ef69351485fc21d629b37ee2006b2076eb6_bw.jpg,-2.380952,-0.832364,blackwhite,riri0610,2022-06-13_12h34.45.929,ratings,2022.1.1,Win32,60.05645307
-1.408195831,1.9905,-1.974106306,3.1812,0,281,281,597,1,1239_cee00457f4cfb76a407b12fd5ad714d440a4614c1e5467ee16caf618_blur.jpg,-0.03174604,0.190476,blurring,riri0610,2022-06-13_12h34.45.929,ratings,2022.1.1,Win32,60.05645307
-3.369141428,1.6686,0.013160709,2.7001,0,282,282,539,1,986_a77edb21e78bc3a6aa7406517824596b3496ad6c657b6befb84cf370_circblurext.jpg,-3.906316,-0.60496,circularblurringext,riri0610,2022-06-13_12h34.45.929,ratings,2022.1.1,Win32,60.05645307
0.723838979,1.3518,-2.197838354,2.301,0,283,283,169,1,365_45a719cabbc9aa308c4fcb30d529489c6966ac4073874af84f665c61_bw.jpg,2.507936,-1.968252,blackwhite,riri0610,2022-06-13_12h34.45.929,ratings,2022.1.1,Win32,60.05645307
-3.092766545,2.2235,-2.000427723,2.9144,0,284,284,137,1,349_8809a67686d34844c915d7700e2ea72ad1c02ae232ae0d3cc0e458d4_circblurext.jpg,-3.619048,-0.2857144,circularblurringext,riri0610,2022-06-13_12h34.45.929,ratings,2022.1.1,Win32,60.05645307
1.368713705,3.7833,-0.723838979,6.1765,0,285,285,459,1,720_483c541c48959a597fcf44320941afaf8b7695105f90d65b5f6b30f2_blur.jpg,2.158732,-0.2539684,blurring,riri0610,2022-06-13_12h34.45.929,ratings,2022.1.1,Win32,60.05645307
0.987053153,8.728,-1.842499219,9.9657,0,286,286,68,1,172_c641c6c56ca6b594b773084e1363c852abdb65f988d7ff802ee503f2_edges.jpg,0.379572,0.01725328,edges,riri0610,2022-06-13_12h34.45.929,ratings,2022.1.1,Win32,60.05645307
-3.434944972,1.4781,-1.842499219,2.4451,0,287,287,531,1,915_dc9fd40a3b5d64a180833a7bac86e7556c24f681f473fe255e41f936_blur.jpg,-3.09294,-0.918696,blurring,riri0610,2022-06-13_12h34.45.929,ratings,2022.1.1,Win32,60.05645307
2.276802606,4.0701,2.224159771,4.9023,0,288,288,404,1,686_6745b57686ad5d1bd6cf3e7ed5bc0243a154f8939e88e30321dfcfdb_edges.jpg,-1.523808,3.650792,edges,riri0610,2022-06-13_12h34.45.929,ratings,2022.1.1,Win32,60.05645307
1.816177801,1.5561,1.263428036,2.3139,0,289,289,527,1,877_cab3efed0c9ff4552037df6c1ea4ea9713f915c94592a14dbf2799da_circblurext.jpg,3.174604,0.3174604,circularblurringext,riri0610,2022-06-13_12h34.45.929,ratings,2022.1.1,Win32,60.05645307
-2.895355915,1.6438,-1.31607087,2.5769,0,290,290,575,1,1039_d64da8480fc6e94dcdc513237d600570ae0b9fe48795ac6a8b2d29a7_circblurext.jpg,-2.507936,-1.142856,circularblurringext,riri0610,2022-06-13_12h34.45.929,ratings,2022.1.1,Win32,60.05645307
-1.93462418,3.1166,-2.105713393,5.5298,0,291,291,284,1,440_dc6413e2b65369ee2587f4d85621742fe4ca87392d0a8ad2ea7d94e3_edges.jpg,-3.016216,1.69404,edges,riri0610,2022-06-13_12h34.45.929,ratings,2022.1.1,Win32,60.05645307
-0.394821261,3.5376,-1.895142053,4.9677,0,292,292,22,1,48_2cc936b2483ab2944c9158e163342b874ef6c1492fd8fca08c0e096e_circblurint.jpg,-1.264224,-0.779604,circularblurringint,riri0610,2022-06-13_12h34.45.929,ratings,2022.1.1,Win32,60.05645307
1.803017092,1.762,0.421142679,2.8273,0,293,293,339,1,492_a1a4d288d3bc486c83c3b6a835c42891989f5ba781633932298a7676_blur.jpg,3.406892,-0.44522,blurring,riri0610,2022-06-13_12h34.45.929,ratings,2022.1.1,Win32,60.05645307
-1.737213549,2.3821,1.671410005,3.5173,0,294,294,512,1,858_2f6539ee36aba48c38dc716d4f7c3ae93367d6ddf23ab41745d4172c_edges.jpg,0.0623832,0.176752,edges,riri0610,2022-06-13_12h34.45.929,ratings,2022.1.1,Win32,60.05645307
1.684570714,1.8365,0.81596394,2.8673,0,295,295,265,1,431_ab5a1dbbe9292ac7f74e276cdabcd372e2c1f852ff34bf7cc6646ef8_bw.jpg,3.102584,0.354334,blackwhite,riri0610,2022-06-13_12h34.45.929,ratings,2022.1.1,Win32,60.05645307
-0.829124648,2.1553,0.658035435,5.0133,0,296,296,375,1,620_9674719009d75dcfeaed7f15932c43e1fd1af5e25d47b8aadd61efe2_blur.jpg,-0.561364,1.142084,blurring,riri0610,2022-06-13_12h34.45.929,ratings,2022.1.1,Win32,60.05645307
-0.684356853,3.7881,-2.421570402,4.6215,0,297,297,576,1,1061_665178b9cb0bc869cc2e2b68def4838db04e66f9531098fb75875a09_orig.jpg,0.3492064,-0.3174604,original,riri0610,2022-06-13_12h34.45.929,ratings,2022.1.1,Win32,60.05645307
1.381874414,5.6702,-2.013588432,7.5191,0,298,298,343,1,494_5c6c3b85a2734a43c24bfe337d42ffcc82b7347227804d01c784cef4_bw.jpg,0.03871468,0.0,blackwhite,riri0610,2022-06-13_12h34.45.929,ratings,2022.1.1,Win32,60.05645307
1.381874414,7.3522,3.579712768,9.3426,0,299,299,582,1,1225_59c67a821456f2cce3e5acf66d7f00076bd02caffc984c1eb0df794e_orig.jpg,-0.444444,3.809524,original,riri0610,2022-06-13_12h34.45.929,ratings,2022.1.1,Win32,60.05645307
1.750374258,2.4514,-0.131607087,4.5831,0,300,300,42,1,92_5d20d78a8e57e628c6930676473a4e0a485e715841efd6286c660020_orig.jpg,2.126984,0.0,original,riri0610,2022-06-13_12h34.45.929,ratings,2022.1.1,Win32,60.05645307
1.42135654,2.5187,-1.881981345,3.4678,0,301,301,266,1,431_ab5a1dbbe9292ac7f74e276cdabcd372e2c1f852ff34bf7cc6646ef8_edges.jpg,3.102584,0.354334,edges,riri0610,2022-06-13_12h34.45.929,ratings,2022.1.1,Win32,60.05645307
-0.934410318,9.7161,-0.829124648,14.4898,0,302,302,588,1,1228_557412d34d6a70b7c5d222e030aa485b351a4574e8ba1a3112d1d13d_orig.jpg,2.137444,0.703464,original,riri0610,2022-06-13_12h34.45.929,ratings,2022.1.1,Win32,60.05645307
1.684570714,1.2869,1.250267327,2.0457,0,303,303,525,1,877_cab3efed0c9ff4552037df6c1ea4ea9713f915c94592a14dbf2799da_blur.jpg,3.174604,0.3174604,blurring,riri0610,2022-06-13_12h34.45.929,ratings,2022.1.1,Win32,60.05645307
-1.184463783,2.0883,-1.776695675,3.7791,0,304,304,475,1,748_e519892faa7c772a0afaf9eeff36cf0e411574027ab3d9aa4947a048_bw.jpg,-1.813112,3.307432,blackwhite,riri0610,2022-06-13_12h34.45.929,ratings,2022.1.1,Win32,60.05645307
1.552963627,1.585,-1.645088588,2.5499,0,305,305,569,1,1037_e2eb929a6de79a63ce6cfe5321fcb74a203b134e4094932d90b01d99_circblurext.jpg,2.651956,0.0,circularblurringext,riri0610,2022-06-13_12h34.45.929,ratings,2022.1.1,Win32,60.05645307
-3.65867702,1.394,-3.500748515,2.226,0,306,306,322,1,460_e06b3af7ff2f2bfb5f9b6e3d5dc25b9aaa40b84823fac8fd934621bd_circblurint.jpg,-3.430992,-1.607468,circularblurringint,riri0610,2022-06-13_12h34.45.929,ratings,2022.1.1,Win32,60.05645307
-1.01337457,1.892,-2.908516624,3.2092,0,307,307,437,1,694_f80f33613b268beffd6c044537cf3b44a84683d6e889bc37b8e9c34b_circblurext.jpg,-0.3785616,3.34728,circularblurringext,riri0610,2022-06-13_12h34.45.929,ratings,2022.1.1,Win32,60.05645307
-2.803230954,213.5136,2.02674914,214.7553,0,308,308,489,1,818_877aae033c31e3bbca4486321a5307f87cf53c576c546462d3daf194_blur.jpg,-1.277584,0.619436,blurring,riri0610,2022-06-13_12h34.45.929,ratings,2022.1.1,Win32,60.05645307
1.31607087,2.1951,-1.092338822,3.1466,0,309,309,431,1,694_7a14b8ab7c564dcb0f628c4de7f6cb54e4c5f6601f774bf167641c37_circblurext.jpg,1.819588,0.116144,circularblurringext,riri0610,2022-06-13_12h34.45.929,ratings,2022.1.1,Win32,60.05645307
-0.829124648,1.7651,-2.790070245,2.7031,0,310,310,215,1,394_8e3a0cb945144d53bd1ace04b6256237ed9dcbbd9cb83f8a4886b0e6_circblurext.jpg,-2.593884,2.651956,circularblurringext,riri0610,2022-06-13_12h34.45.929,ratings,2022.1.1,Win32,60.05645307
0.987053153,1.2264,-1.289749453,2.1816,0,311,311,393,1,663_aaf52107fe3a86392530d88b34e86f9d2b6820714cad98d1e3c2cb67_blur.jpg,2.58766,0.0918696,blurring,riri0610,2022-06-13_12h34.45.929,ratings,2022.1.1,Win32,60.05645307
-1.460838666,1.8954,0.6053926,5.0274,0,312,312,389,1,646_577760d718dab44c6f04d77408c5644a120065ce07a9503957d0850a_circblurext.jpg,-2.690668,2.61324,circularblurringext,riri0610,2022-06-13_12h34.45.929,ratings,2022.1.1,Win32,60.05645307
0.987053153,2.1164,-1.460838666,3.6189,0,313,313,546,1,1010_06d15f44b979c086561137000ec070ba4cd479856f92840a7850b2bf_orig.jpg,0.189786,-0.189786,original,riri0610,2022-06-13_12h34.45.929,ratings,2022.1.1,Win32,60.05645307
-2.066231267,1.5067,0.855446066,2.8375,0,314,314,574,1,1039_d64da8480fc6e94dcdc513237d600570ae0b9fe48795ac6a8b2d29a7_circblurint.jpg,-2.507936,-1.142856,circularblurringint,riri0610,2022-06-13_12h34.45.929,ratings,2022.1.1,Win32,60.05645307
1.447677957,2.505,1.566124336,3.4724,0,315,315,422,1,692_e3e3bf88684fbbcdb9849a4147f9e2fcd39b0f083554a829aca4e9fa_edges.jpg,-0.44522,3.135888,edges,riri0610,2022-06-13_12h34.45.929,ratings,2022.1.1,Win32,60.05645307
-1.82933851,3.1235,-0.223732048,3.7291,0,316,316,387,1,646_577760d718dab44c6f04d77408c5644a120065ce07a9503957d0850a_blur.jpg,-2.690668,2.61324,blurring,riri0610,2022-06-13_12h34.45.929,ratings,2022.1.1,Win32,60.05645307
-0.921249609,4.9651,-1.908302762,5.6512,0,317,317,283,1,440_dc6413e2b65369ee2587f4d85621742fe4ca87392d0a8ad2ea7d94e3_bw.jpg,-3.016216,1.69404,blackwhite,riri0610,2022-06-13_12h34.45.929,ratings,2022.1.1,Win32,60.05645307
-0.934410318,15.553,-1.750374258,10.8452,0,318,318,207,1,381_5935a9f9796adce2f1539af6c75bcdc0c80d847a2ce9b77cf59b7672_blur.jpg,-1.327432,-0.442476,blurring,riri0610,2022-06-13_12h34.45.929,ratings,2022.1.1,Win32,60.05645307
1.131820949,1.4027,0.736999687,5.6637,0,319,319,164,1,361_b5541309527dc3c2422f45a95ebb0ed32005e6fe10d0489a1ff1fbdc_edges.jpg,-3.987612,-0.2516452,edges,riri0610,2022-06-13_12h34.45.929,ratings,2022.1.1,Win32,60.05645307
-1.197624492,1.4476,1.381874414,2.5044,0,320,320,514,1,858_2f6539ee36aba48c38dc716d4f7c3ae93367d6ddf23ab41745d4172c_circblurint.jpg,0.0623832,0.176752,circularblurringint,riri0610,2022-06-13_12h34.45.929,ratings,2022.1.1,Win32,60.05645307
1.237106618,1.9425,0.947571027,2.7691,0,321,321,203,1,380_34772591c787182a37724027eac6948ebc9d4064f6a601d23b923b8e_circblurext.jpg,2.222224,-0.063492,circularblurringext,riri0610,2022-06-13_12h34.45.929,ratings,2022.1.1,Win32,60.05645307
2.329445441,1.7606,1.960945597,2.7271,0,322,322,63,1,156_08e8cf8f04630e9213e610580de73f51572d1d589878648700bae4dc_blur.jpg,2.222224,0.0,blurring,riri0610,2022-06-13_12h34.45.929,ratings,2022.1.1,Win32,60.05645307
-0.355339135,4.6167,-2.421570402,5.5019,0,323,323,556,1,1014_a5c212ca979d482cf94c2db7697aba75620391a64b030ab7ad2bbecf_circblurint.jpg,-3.174604,-1.374372,circularblurringint,riri0610,2022-06-13_12h34.45.929,ratings,2022.1.1,Win32,60.05645307
1.381874414,1.3796,0.960731735,3.1934,0,324,324,304,1,453_54f106fd1d4b65fa4aa347407127fc30d49f791e81aee3a0bbe44489_circblurint.jpg,2.222224,0.0,circularblurringint,riri0610,2022-06-13_12h34.45.929,ratings,2022.1.1,Win32,60.05645307
1.131820949,2.3818,0.842285357,4.008,0,325,325,483,1,759_95e1c46ed9a337414d5c8eada8fa8b9632e18751f5ce6ed587806e91_blur.jpg,2.126984,0.0,blurring,riri0610,2022-06-13_12h34.45.929,ratings,2022.1.1,Win32,60.05645307
1.592445753,2.3253,1.000213862,3.1316,0,326,326,329,1,468_8b69b13120daebadd8a4a3166e1419f2404395cba231307a4efa9fde_circblurext.jpg,2.031744,0.2539684,circularblurringext,riri0610,2022-06-13_12h34.45.929,ratings,2022.1.1,Win32,60.05645307
-1.960945597,1.3943,-1.776695675,1.9949,0,327,327,415,1,692_7d7eaf20e6de8956f0fca7500ace97a8599aa8b605a7d690cdb28724_bw.jpg,-2.063492,-1.26984,blackwhite,riri0610,2022-06-13_12h34.45.929,ratings,2022.1.1,Win32,60.05645307
1.039695988,1.668,-0.3026963,2.4266,0,328,328,177,1,368_6507b94d7d0199f14efd3706db30c9c44b96085f84e9cc7792e3e0ae_blur.jpg,1.959544,0.400336,blurring,riri0610,2022-06-13_12h34.45.929,ratings,2022.1.1,Win32,60.05645307
1.342392288,11.9031,-1.473999375,14.5125,0,329,329,255,1,416_5eb54976bb41ce2a6d129ef985f792e716f010fb9b69b15f50f5d2db_blur.jpg,-2.58766,2.602972,blurring,riri0610,2022-06-13_12h34.45.929,ratings,2022.1.1,Win32,60.05645307
2.105713393,1.5433,0.223732048,2.4256,0,330,330,353,1,498_305b74cdc4784d9d25e72724302e5402def70177ea31ae7e25fab66b_circblurext.jpg,3.04762,-0.444444,circularblurringext,riri0610,2022-06-13_12h34.45.929,ratings,2022.1.1,Win32,60.05645307
1.539802918,1.9757,-0.71067827,2.8122,0,331,331,226,1,403_57ac47f43882fc031a6067b1a388c0b2cbe8708dcbd2ff1019932eff_circblurint.jpg,-3.333332,-1.396824,circularblurringint,riri0610,2022-06-13_12h34.45.929,ratings,2022.1.1,Win32,60.05645307
0.039482126,4.5056,0.092124961,5.5374,0,332,332,316,1,459_46e25de472bb056cb470716d30937415f7344bfc4354d6eb710d8c9f_circblurint.jpg,0.03174604,0.0,circularblurringint,riri0610,2022-06-13_12h34.45.929,ratings,2022.1.1,Win32,60.05645307
0.723838979,3.989,0.513267639,7.0519,0,333,333,289,1,442_7449d79dae5d652af9b2429872cabdef938646ba024db2f431b3b28d_bw.jpg,1.619048,0.126984,blackwhite,riri0610,2022-06-13_12h34.45.929,ratings,2022.1.1,Win32,60.05645307
1.618767171,2.6094,-1.052856696,3.4742,0,334,334,9,1,28_6318543b74eeb646a1735477ebc023fdc9ac3849bc0db1957c272a26_blur.jpg,2.811244,-0.74584,blurring,riri0610,2022-06-13_12h34.45.929,ratings,2022.1.1,Win32,60.05645307
-1.803017092,3.409,2.882195206,4.2418,0,335,335,270,1,434_ba36d91204d7e578001f6a545d7501e65d209554def5a3c8b7583825_orig.jpg,-3.523808,1.428572,original,riri0610,2022-06-13_12h34.45.929,ratings,2022.1.1,Win32,60.05645307
1.579285044,1.3197,-1.026535279,3.151,0,336,336,31,1,60_ad52063167538de24f94d7dfd04808cb94cf8f426c40871d2f126505_bw.jpg,2.158732,0.0,blackwhite,riri0610,2022-06-13_12h34.45.929,ratings,2022.1.1,Win32,60.05645307
2.066231267,1.9429,-1.026535279,2.8218,0,337,337,47,1,92_5d20d78a8e57e628c6930676473a4e0a485e715841efd6286c660020_circblurext.jpg,2.126984,0.0,circularblurringext,riri0610,2022-06-13_12h34.45.929,ratings,2022.1.1,Win32,60.05645307
1.842499219,1.5522,0.144767796,2.6001,0,338,338,119,1,332_4d584229bdae2e1782f77f0e953e528f13c3dfa79b4b94736c0310fa_circblurext.jpg,3.157348,0.483092,circularblurringext,riri0610,2022-06-13_12h34.45.929,ratings,2022.1.1,Win32,60.05645307
-1.881981345,1.8732,0.118446378,3.3674,0,339,339,385,1,646_577760d718dab44c6f04d77408c5644a120065ce07a9503957d0850a_bw.jpg,-2.690668,2.61324,blackwhite,riri0610,2022-06-13_12h34.45.929,ratings,2022.1.1,Win32,60.05645307
1.460838666,1.297,0.763321105,2.5578,0,340,340,516,1,860_05c4e22518a30d3d2add458a8fc6488f87b9b02dd8e385ded939f025_orig.jpg,1.955092,0.3097172,original,riri0610,2022-06-13_12h34.45.929,ratings,2022.1.1,Win32,60.05645307
1.605606462,1.207,1.987267014,2.5687,0,341,341,231,1,407_578d31d32e806706dde2563213f130b90e621abfed0e47ecabd85d27_blur.jpg,3.5873,-0.444444,blurring,riri0610,2022-06-13_12h34.45.929,ratings,2022.1.1,Win32,60.05645307
-0.658035435,2.6534,-2.776909537,6.0452,0,342,342,70,1,172_c641c6c56ca6b594b773084e1363c852abdb65f988d7ff802ee503f2_circblurint.jpg,0.379572,0.01725328,circularblurringint,riri0610,2022-06-13_12h34.45.929,ratings,2022.1.1,Win32,60.05645307
0.987053153,2.0324,-1.250267327,3.2709,0,343,343,50,1,112_b6a4ce721c2e42943d7d8b168751d74cd2f372b1cd4fed5a4404faec_edges.jpg,2.107036,0.505688,edges,riri0610,2022-06-13_12h34.45.929,ratings,2022.1.1,Win32,60.05645307
1.329231579,2.124,-0.776481814,5.3434,0,344,344,219,1,396_208259ea431d47bb7f3946213eb099834eb119756ce304ad473d4d9f_blur.jpg,2.857144,-0.3809524,blurring,riri0610,2022-06-13_12h34.45.929,ratings,2022.1.1,Win32,60.05645307
0.855446066,1.3875,-1.368713705,2.584,0,345,345,96,1,267_792043debad81ce271cec5b3c3bd9d264efc13f362bec9c7a3f72fe7_orig.jpg,1.980616,0.2107036,original,riri0610,2022-06-13_12h34.45.929,ratings,2022.1.1,Win32,60.05645307
0.71067827,4.1858,-2.158356227,6.2778,0,346,346,425,1,692_e3e3bf88684fbbcdb9849a4147f9e2fcd39b0f083554a829aca4e9fa_circblurext.jpg,-0.44522,3.135888,circularblurringext,riri0610,2022-06-13_12h34.45.929,ratings,2022.1.1,Win32,60.05645307
-1.092338822,2.3577,-2.474213236,3.6728,0,347,347,259,1,416_8a1f874e0057d67a4e6955865ba88b2d8ce2c8b4469589307687a723_bw.jpg,-1.753336,3.088264,blackwhite,riri0610,2022-06-13_12h34.45.929,ratings,2022.1.1,Win32,60.05645307
1.552963627,1.5094,0.631714018,2.1092,0,348,348,523,1,877_cab3efed0c9ff4552037df6c1ea4ea9713f915c94592a14dbf2799da_bw.jpg,3.174604,0.3174604,blackwhite,riri0610,2022-06-13_12h34.45.929,ratings,2022.1.1,Win32,60.05645307
1.092338822,1.2944,-1.816177801,2.0604,0,349,349,145,1,354_e46c3ec6fb00773f64f2bcd212385f253c389808fe724b7cf8611051_bw.jpg,2.018292,0.0,blackwhite,riri0610,2022-06-13_12h34.45.929,ratings,2022.1.1,Win32,60.05645307
1.763534966,1.481,1.184463783,2.4016,0,350,350,116,1,332_4d584229bdae2e1782f77f0e953e528f13c3dfa79b4b94736c0310fa_edges.jpg,3.157348,0.483092,edges,riri0610,2022-06-13_12h34.45.929,ratings,2022.1.1,Win32,60.05645307
-0.855446066,8.1041,-2.553177489,6.0935,0,351,351,107,1,284_cdcbd54fc995081ac95c8b2c37a19cebb341f61a8eb268cee1623492_circblurext.jpg,-1.015872,2.095236,circularblurringext,riri0610,2022-06-13_12h34.45.929,ratings,2022.1.1,Win32,60.05645307
-1.816177801,2.2982,-0.6053926,3.4293,0,352,352,589,1,1228_557412d34d6a70b7c5d222e030aa485b351a4574e8ba1a3112d1d13d_bw.jpg,2.137444,0.703464,blackwhite,riri0610,2022-06-13_12h34.45.929,ratings,2022.1.1,Win32,60.05645307
-0.210571339,3.073,-0.263214174,3.9503,0,353,353,158,1,358_157f8ac929713531a15b1ecf115e7b659cb90e83d675251e368d165f_edges.jpg,-3.777776,-0.571428,edges,riri0610,2022-06-13_12h34.45.929,ratings,2022.1.1,Win32,60.05645307
1.93462418,1.4588,-1.158142366,2.5915,0,354,354,567,1,1037_e2eb929a6de79a63ce6cfe5321fcb74a203b134e4094932d90b01d99_blur.jpg,2.651956,0.0,blurring,riri0610,2022-06-13_12h34.45.929,ratings,2022.1.1,Win32,60.05645307
1.460838666,1.5948,-0.486946222,2.3713,0,355,355,11,1,28_6318543b74eeb646a1735477ebc023fdc9ac3849bc0db1957c272a26_circblurext.jpg,2.811244,-0.74584,circularblurringext,riri0610,2022-06-13_12h34.45.929,ratings,2022.1.1,Win32,60.05645307
2.43473111,1.281,0.921249609,2.4962,0,356,356,181,1,369_98db62a1bdabfd1bc551180da6658005b461585cd21614633cf76470_bw.jpg,2.190476,-0.03174604,blackwhite,riri0610,2022-06-13_12h34.45.929,ratings,2022.1.1,Win32,60.05645307
1.000213862,5.8438,-1.210785201,6.6698,0,357,357,428,1,694_7a14b8ab7c564dcb0f628c4de7f6cb54e4c5f6601f774bf167641c37_edges.jpg,1.819588,0.116144,edges,riri0610,2022-06-13_12h34.45.929,ratings,2022.1.1,Win32,60.05645307
-1.31607087,4.4548,-1.684570714,5.8701,0,358,358,10,1,28_6318543b74eeb646a1735477ebc023fdc9ac3849bc0db1957c272a26_circblurint.jpg,2.811244,-0.74584,circularblurringint,riri0610,2022-06-13_12h34.45.929,ratings,2022.1.1,Win32,60.05645307
1.01337457,3.4083,-2.658463158,4.6904,0,359,359,54,1,137_0e6a04243c0a42a5e2528a2d181255ca2a4b7bd6e7978c5c2059c69f_orig.jpg,-0.95238,2.095236,original,riri0610,2022-06-13_12h34.45.929,ratings,2022.1.1,Win32,60.05645307
-3.487587807,3.2436,-1.881981345,4.0872,0,360,360,529,1,915_dc9fd40a3b5d64a180833a7bac86e7556c24f681f473fe255e41f936_bw.jpg,-3.09294,-0.918696,blackwhite,riri0610,2022-06-13_12h34.45.929,ratings,2022.1.1,Win32,60.05645307
-0.631714018,2.8241,-2.869034498,3.9811,0,361,361,365,1,508_a7a9519cdc7aad6844030f4e6cd96cffd1b9c49b71e20ea52789bda2_circblurext.jpg,-3.000388,-1.29694,circularblurringext,riri0610,2022-06-13_12h34.45.929,ratings,2022.1.1,Win32,60.05645307
1.408195831,2.2708,0.039482126,3.2063,0,362,362,566,1,1037_e2eb929a6de79a63ce6cfe5321fcb74a203b134e4094932d90b01d99_edges.jpg,2.651956,0.0,edges,riri0610,2022-06-13_12h34.45.929,ratings,2022.1.1,Win32,60.05645307
0.973892444,5.0816,-2.474213236,6.5524,0,363,363,299,1,449_9c1e990a3480e5b51430fe76b0188e69ba2468fd6a866b88b2d0dd75_circblurext.jpg,0.095238,0.03174604,circularblurringext,riri0610,2022-06-13_12h34.45.929,ratings,2022.1.1,Win32,60.05645307
-0.829124648,2.2972,-1.737213549,3.0954,0,364,364,239,1,410_9633c4ff6e8888fcfca59a60ca86e9606d3e0736500a254101bdf295_circblurext.jpg,-0.3677892,2.981028,circularblurringext,riri0610,2022-06-13_12h34.45.929,ratings,2022.1.1,Win32,60.05645307
0.855446066,2.9922,-1.513481501,3.7637,0,365,365,253,1,416_5eb54976bb41ce2a6d129ef985f792e716f010fb9b69b15f50f5d2db_bw.jpg,-2.58766,2.602972,blackwhite,riri0610,2022-06-13_12h34.45.929,ratings,2022.1.1,Win32,60.05645307
-2.54001678,4.5346,1.408195831,5.7867,0,366,366,424,1,692_e3e3bf88684fbbcdb9849a4147f9e2fcd39b0f083554a829aca4e9fa_circblurint.jpg,-0.44522,3.135888,circularblurringint,riri0610,2022-06-13_12h34.45.929,ratings,2022.1.1,Win32,60.05645307
-1.158142366,1.6393,-1.908302762,2.7342,0,367,367,196,1,379_eeaa6d9bf5a4ef205dc48bc505cf3a7f24ea86e99af9b371e03602a7_circblurint.jpg,-0.3926308,2.88936,circularblurringint,riri0610,2022-06-13_12h34.45.929,ratings,2022.1.1,Win32,60.05645307
0.81596394,1.8031,-0.973892444,3.0656,0,368,368,551,1,1010_06d15f44b979c086561137000ec070ba4cd479856f92840a7850b2bf_circblurext.jpg,0.189786,-0.189786,circularblurringext,riri0610,2022-06-13_12h34.45.929,ratings,2022.1.1,Win32,60.05645307
-1.763534966,2.8251,-1.158142366,5.9713,0,369,369,192,1,379_eeaa6d9bf5a4ef205dc48bc505cf3a7f24ea86e99af9b371e03602a7_orig.jpg,-0.3926308,2.88936,original,riri0610,2022-06-13_12h34.45.929,ratings,2022.1.1,Win32,60.05645307
0.934410318,2.7942,-1.684570714,4.7581,0,370,370,345,1,494_5c6c3b85a2734a43c24bfe337d42ffcc82b7347227804d01c784cef4_blur.jpg,0.03871468,0.0,blurring,riri0610,2022-06-13_12h34.45.929,ratings,2022.1.1,Win32,60.05645307
-0.81596394,3.3321,-1.158142366,4.5039,0,371,371,591,1,1228_557412d34d6a70b7c5d222e030aa485b351a4574e8ba1a3112d1d13d_blur.jpg,2.137444,0.703464,blurring,riri0610,2022-06-13_12h34.45.929,ratings,2022.1.1,Win32,60.05645307
1.566124336,2.029,-1.092338822,2.9704,0,372,372,38,1,82_43f4d5aec7c2e5bd495473f6708a0f2d47c9fe34e1fe9436646cb036_edges.jpg,2.022756,0.505688,edges,riri0610,2022-06-13_12h34.45.929,ratings,2022.1.1,Win32,60.05645307
-1.066017405,4.1663,-2.750588119,4.8352,0,373,373,554,1,1014_a5c212ca979d482cf94c2db7697aba75620391a64b030ab7ad2bbecf_edges.jpg,-3.174604,-1.374372,edges,riri0610,2022-06-13_12h34.45.929,ratings,2022.1.1,Win32,60.05645307
-0.81596394,2.2044,-3.263855759,3.6697,0,374,374,363,1,508_a7a9519cdc7aad6844030f4e6cd96cffd1b9c49b71e20ea52789bda2_blur.jpg,-3.000388,-1.29694,blurring,riri0610,2022-06-13_12h34.45.929,ratings,2022.1.1,Win32,60.05645307
1.223945909,2.377,-3.777123398,3.8494,0,375,375,451,1,716_2ab64478147184c4df720a52cf621875addc9007cb2967e4a9a88909_bw.jpg,2.428484,0.0,blackwhite,riri0610,2022-06-13_12h34.45.929,ratings,2022.1.1,Win32,60.05645307
1.210785201,1.4904,-1.645088588,2.452,0,376,376,147,1,354_e46c3ec6fb00773f64f2bcd212385f253c389808fe724b7cf8611051_blur.jpg,2.018292,0.0,blurring,riri0610,2022-06-13_12h34.45.929,ratings,2022.1.1,Win32,60.05645307
1.11866024,1.8334,-3.592873476,2.7831,0,377,377,452,1,716_2ab64478147184c4df720a52cf621875addc9007cb2967e4a9a88909_edges.jpg,2.428484,0.0,edges,riri0610,2022-06-13_12h34.45.929,ratings,2022.1.1,Win32,60.05645307
1.210785201,2.359,-2.303124023,4.2903,0,378,378,326,1,468_8b69b13120daebadd8a4a3166e1419f2404395cba231307a4efa9fde_edges.jpg,2.031744,0.2539684,edges,riri0610,2022-06-13_12h34.45.929,ratings,2022.1.1,Win32,60.05645307
-1.144981657,2.5598,-2.013588432,4.5233,0,379,379,104,1,284_cdcbd54fc995081ac95c8b2c37a19cebb341f61a8eb268cee1623492_edges.jpg,-1.015872,2.095236,edges,riri0610,2022-06-13_12h34.45.929,ratings,2022.1.1,Win32,60.05645307
1.42135654,2.1437,0.697517561,2.9465,0,380,380,301,1,453_54f106fd1d4b65fa4aa347407127fc30d49f791e81aee3a0bbe44489_bw.jpg,2.222224,0.0,blackwhite,riri0610,2022-06-13_12h34.45.929,ratings,2022.1.1,Win32,60.05645307
1.395035123,1.5151,0.276374883,3.077,0,381,381,466,1,736_bb85db1bcda8eb34299aa5791ac65a0a7c343266eb2d6e6e328ec0e1_circblurint.jpg,3.650792,-0.03174604,circularblurringint,riri0610,2022-06-13_12h34.45.929,ratings,2022.1.1,Win32,60.05645307
0.210571339,3.2737,-2.092552684,4.3972,0,382,382,71,1,172_c641c6c56ca6b594b773084e1363c852abdb65f988d7ff802ee503f2_circblurext.jpg,0.379572,0.01725328,circularblurringext,riri0610,2022-06-13_12h34.45.929,ratings,2022.1.1,Win32,60.05645307
1.131820949,2.1757,0.131607087,2.8921,0,383,383,268,1,431_ab5a1dbbe9292ac7f74e276cdabcd372e2c1f852ff34bf7cc6646ef8_circblurint.jpg,3.102584,0.354334,circularblurringint,riri0610,2022-06-13_12h34.45.929,ratings,2022.1.1,Win32,60.05645307
0.421142679,2.6079,-2.013588432,3.6258,0,384,384,347,1,494_5c6c3b85a2734a43c24bfe337d42ffcc82b7347227804d01c784cef4_circblurext.jpg,0.03871468,0.0,circularblurringext,riri0610,2022-06-13_12h34.45.929,ratings,2022.1.1,Win32,60.05645307
0.263214174,6.6869,-2.092552684,7.4701,0,385,385,218,1,396_208259ea431d47bb7f3946213eb099834eb119756ce304ad473d4d9f_edges.jpg,2.857144,-0.3809524,edges,riri0610,2022-06-13_12h34.45.929,ratings,2022.1.1,Win32,60.05645307
-0.789642522,3.7391,-2.145195519,5.3711,0,386,386,23,1,48_2cc936b2483ab2944c9158e163342b874ef6c1492fd8fca08c0e096e_circblurext.jpg,-1.264224,-0.779604,circularblurringext,riri0610,2022-06-13_12h34.45.929,ratings,2022.1.1,Win32,60.05645307
1.052856696,1.4442,0.894928192,2.2895,0,387,387,28,1,59_8568373b727f29d67ba6ce4c360dd918c8b08b13495fca56bdda5e82_circblurint.jpg,2.064896,0.505688,circularblurringint,riri0610,2022-06-13_12h34.45.929,ratings,2022.1.1,Win32,60.05645307
1.197624492,2.33,-1.605606462,3.0828,0,388,388,342,1,494_5c6c3b85a2734a43c24bfe337d42ffcc82b7347227804d01c784cef4_orig.jpg,0.03871468,0.0,original,riri0610,2022-06-13_12h34.45.929,ratings,2022.1.1,Win32,60.05645307
-2.94799875,1.5713,-2.869034498,2.3719,0,389,389,135,1,349_8809a67686d34844c915d7700e2ea72ad1c02ae232ae0d3cc0e458d4_blur.jpg,-3.619048,-0.2857144,blurring,riri0610,2022-06-13_12h34.45.929,ratings,2022.1.1,Win32,60.05645307
-0.71067827,2.0676,-0.973892444,3.6488,0,390,390,86,1,243_beddb302dcb21071d88c8d2cab07002050d36b3001ef28f89389fa56_edges.jpg,-0.3450656,-0.2070392,edges,riri0610,2022-06-13_12h34.45.929,ratings,2022.1.1,Win32,60.05645307
-1.01337457,6.6357,-2.118874101,7.6961,0,391,391,208,1,381_5935a9f9796adce2f1539af6c75bcdc0c80d847a2ce9b77cf59b7672_circblurint.jpg,-1.327432,-0.442476,circularblurringint,riri0610,2022-06-13_12h34.45.929,ratings,2022.1.1,Win32,60.05645307
1.171303075,1.9919,-1.552963627,3.2066,0,392,392,62,1,156_08e8cf8f04630e9213e610580de73f51572d1d589878648700bae4dc_edges.jpg,2.222224,0.0,edges,riri0610,2022-06-13_12h34.45.929,ratings,2022.1.1,Win32,60.05645307
1.671410005,3.1531,-1.171303075,8.1929,0,393,393,548,1,1010_06d15f44b979c086561137000ec070ba4cd479856f92840a7850b2bf_edges.jpg,0.189786,-0.189786,edges,riri0610,2022-06-13_12h34.45.929,ratings,2022.1.1,Win32,60.05645307
-2.974320167,3.3769,-1.039695988,4.7089,0,394,394,136,1,349_8809a67686d34844c915d7700e2ea72ad1c02ae232ae0d3cc0e458d4_circblurint.jpg,-3.619048,-0.2857144,circularblurringint,riri0610,2022-06-13_12h34.45.929,ratings,2022.1.1,Win32,60.05645307
2.171516936,1.3787,0.460624805,2.2751,0,395,395,117,1,332_4d584229bdae2e1782f77f0e953e528f13c3dfa79b4b94736c0310fa_blur.jpg,3.157348,0.483092,blurring,riri0610,2022-06-13_12h34.45.929,ratings,2022.1.1,Win32,60.05645307
0.552749766,2.4443,3.869248359,4.3747,0,396,396,585,1,1225_59c67a821456f2cce3e5acf66d7f00076bd02caffc984c1eb0df794e_blur.jpg,-0.444444,3.809524,blurring,riri0610,2022-06-13_12h34.45.929,ratings,2022.1.1,Win32,60.05645307
1.895142053,1.9116,0.184249922,3.2247,0,397,397,122,1,347_27f0e47c2722605b950ccf9fa900f78271e4c3c874064ab5dacac160_edges.jpg,1.838948,0.3097172,edges,riri0610,2022-06-13_12h34.45.929,ratings,2022.1.1,Win32,60.05645307
2.474213236,2.0585,3.224373633,3.1219,0,398,398,403,1,686_6745b57686ad5d1bd6cf3e7ed5bc0243a154f8939e88e30321dfcfdb_bw.jpg,-1.523808,3.650792,blackwhite,riri0610,2022-06-13_12h34.45.929,ratings,2022.1.1,Win32,60.05645307
1.579285044,3.4768,0.276374883,4.827,0,399,399,302,1,453_54f106fd1d4b65fa4aa347407127fc30d49f791e81aee3a0bbe44489_edges.jpg,2.222224,0.0,edges,riri0610,2022-06-13_12h34.45.929,ratings,2022.1.1,Win32,60.05645307
-0.934410318,3.8657,-2.987480876,4.7056,0,400,400,360,1,508_a7a9519cdc7aad6844030f4e6cd96cffd1b9c49b71e20ea52789bda2_orig.jpg,-3.000388,-1.29694,original,riri0610,2022-06-13_12h34.45.929,ratings,2022.1.1,Win32,60.05645307
1.026535279,258.9619,-1.697731423,259.7105,0,401,401,217,1,396_208259ea431d47bb7f3946213eb099834eb119756ce304ad473d4d9f_bw.jpg,2.857144,-0.3809524,blackwhite,riri0610,2022-06-13_12h34.45.929,ratings,2022.1.1,Win32,60.05645307
-1.434517249,1.8378,-1.671410005,4.9781,0,402,402,83,1,242_85283f6935a89812ab229dcad9ba184529c9242ac3106d768ecf3ab3_circblurext.jpg,2.14918,-0.2949852,circularblurringext,riri0610,2022-06-13_12h34.45.929,ratings,2022.1.1,Win32,60.05645307
-3.198052215,1.6662,-2.013588432,2.233,0,403,403,534,1,986_a77edb21e78bc3a6aa7406517824596b3496ad6c657b6befb84cf370_orig.jpg,-3.906316,-0.60496,original,riri0610,2022-06-13_12h34.45.929,ratings,2022.1.1,Win32,60.05645307
1.368713705,3.8409,0.434303387,5.3718,0,404,404,110,1,293_3dfdfafc0c6a54b2da7453750ac281f7718c0b3337b0a74c4563d6bd_edges.jpg,-2.574524,2.632596,edges,riri0610,2022-06-13_12h34.45.929,ratings,2022.1.1,Win32,60.05645307
-0.973892444,1.3647,-2.54001678,2.3119,0,405,405,209,1,381_5935a9f9796adce2f1539af6c75bcdc0c80d847a2ce9b77cf59b7672_circblurext.jpg,-1.327432,-0.442476,circularblurringext,riri0610,2022-06-13_12h34.45.929,ratings,2022.1.1,Win32,60.05645307
1.395035123,2.3677,-2.961159458,3.1499,0,406,406,453,1,716_2ab64478147184c4df720a52cf621875addc9007cb2967e4a9a88909_blur.jpg,2.428484,0.0,blurring,riri0610,2022-06-13_12h34.45.929,ratings,2022.1.1,Win32,60.05645307
0.368499844,2.4082,-2.118874101,4.0375,0,407,407,128,1,349_18d92ef5c21ca70a3dd237aad251594e1688bbe01d8cff37b89c46b8_edges.jpg,-2.74874,-1.258228,edges,riri0610,2022-06-13_12h34.45.929,ratings,2022.1.1,Win32,60.05645307
-1.631927879,2.5099,0.40798197,3.2901,0,408,408,210,1,394_8e3a0cb945144d53bd1ace04b6256237ed9dcbbd9cb83f8a4886b0e6_orig.jpg,-2.593884,2.651956,original,riri0610,2022-06-13_12h34.45.929,ratings,2022.1.1,Win32,60.05645307
-1.592445753,1.6935,0.750160396,2.9925,0,409,409,307,1,455_34a7d8167619d110206c369e3f7dce8a3f99db763a9d8e2b956501d3_bw.jpg,-2.526412,-0.3827896,blackwhite,riri0610,2022-06-13_12h34.45.929,ratings,2022.1.1,Win32,60.05645307
-3.092766545,1.4901,-1.868820636,2.6783,0,410,410,536,1,986_a77edb21e78bc3a6aa7406517824596b3496ad6c657b6befb84cf370_edges.jpg,-3.906316,-0.60496,edges,riri0610,2022-06-13_12h34.45.929,ratings,2022.1.1,Win32,60.05645307
2.250481188,1.3864,1.210785201,2.834,0,411,411,276,1,440_9bf7e8609729bf888835168834da6c3ff30b75d0d4f36e2ee6918bcc_orig.jpg,-2.284164,2.710028,original,riri0610,2022-06-13_12h34.45.929,ratings,2022.1.1,Win32,60.05645307
-3.079605837,1.895,2.276802606,4.1513,0,412,412,421,1,692_e3e3bf88684fbbcdb9849a4147f9e2fcd39b0f083554a829aca4e9fa_bw.jpg,-0.44522,3.135888,blackwhite,riri0610,2022-06-13_12h34.45.929,ratings,2022.1.1,Win32,60.05645307
2.250481188,1.2546,-1.302910162,2.6681,0,413,413,521,1,860_05c4e22518a30d3d2add458a8fc6488f87b9b02dd8e385ded939f025_circblurext.jpg,1.955092,0.3097172,circularblurringext,riri0610,2022-06-13_12h34.45.929,ratings,2022.1.1,Win32,60.05645307
0.644874727,2.1023,-1.184463783,3.2641,0,414,414,297,1,449_9c1e990a3480e5b51430fe76b0188e69ba2468fd6a866b88b2d0dd75_blur.jpg,0.095238,0.03174604,blurring,riri0610,2022-06-13_12h34.45.929,ratings,2022.1.1,Win32,60.05645307
-1.697731423,3.1005,1.566124336,4.5334,0,415,415,513,1,858_2f6539ee36aba48c38dc716d4f7c3ae93367d6ddf23ab41745d4172c_blur.jpg,0.0623832,0.176752,blurring,riri0610,2022-06-13_12h34.45.929,ratings,2022.1.1,Win32,60.05645307
-1.210785201,1.7901,-1.144981657,3.9026,0,416,416,103,1,284_cdcbd54fc995081ac95c8b2c37a19cebb341f61a8eb268cee1623492_bw.jpg,-1.015872,2.095236,blackwhite,riri0610,2022-06-13_12h34.45.929,ratings,2022.1.1,Win32,60.05645307
0.658035435,3.3027,-1.01337457,5.0664,0,417,417,507,1,855_66d893451dfd1e7615132071c6c8a82b02dc2b37781cd89400883b26_blur.jpg,2.69484,0.2143624,blurring,riri0610,2022-06-13_12h34.45.929,ratings,2022.1.1,Win32,60.05645307
1.671410005,1.4546,-0.973892444,3.2261,0,418,418,410,1,687_e3b018945792a574962235c88c553b7c318c75eec2596478e8a7b877_edges.jpg,3.63918,-0.42586,edges,riri0610,2022-06-13_12h34.45.929,ratings,2022.1.1,Win32,60.05645307
1.11866024,1.3672,-1.408195831,2.5161,0,419,419,348,1,498_305b74cdc4784d9d25e72724302e5402def70177ea31ae7e25fab66b_orig.jpg,3.04762,-0.444444,original,riri0610,2022-06-13_12h34.45.929,ratings,2022.1.1,Win32,60.05645307
-1.01337457,2.5113,-1.329231579,3.2935,0,420,420,592,1,1228_557412d34d6a70b7c5d222e030aa485b351a4574e8ba1a3112d1d13d_circblurint.jpg,2.137444,0.703464,circularblurringint,riri0610,2022-06-13_12h34.45.929,ratings,2022.1.1,Win32,60.05645307
-0.973892444,1.7657,-2.592659615,2.5151,0,421,421,599,1,1239_cee00457f4cfb76a407b12fd5ad714d440a4614c1e5467ee16caf618_circblurext.jpg,-0.03174604,0.190476,circularblurringext,riri0610,2022-06-13_12h34.45.929,ratings,2022.1.1,Win32,60.05645307
1.184463783,2.0851,-1.671410005,3.1593,0,422,422,34,1,60_ad52063167538de24f94d7dfd04808cb94cf8f426c40871d2f126505_circblurint.jpg,2.158732,0.0,circularblurringint,riri0610,2022-06-13_12h34.45.929,ratings,2022.1.1,Win32,60.05645307
1.513481501,1.339,0.026321417,2.3512,0,423,423,351,1,498_305b74cdc4784d9d25e72724302e5402def70177ea31ae7e25fab66b_blur.jpg,3.04762,-0.444444,blurring,riri0610,2022-06-13_12h34.45.929,ratings,2022.1.1,Win32,60.05645307
1.144981657,1.8373,-1.855659927,2.7687,0,424,424,462,1,736_bb85db1bcda8eb34299aa5791ac65a0a7c343266eb2d6e6e328ec0e1_orig.jpg,3.650792,-0.03174604,original,riri0610,2022-06-13_12h34.45.929,ratings,2022.1.1,Win32,60.05645307
-1.947784888,1.6711,-1.250267327,3.3345,0,425,425,245,1,411_adfd0d5782129756321ff671d0cfb712528504c66c863df11aabd1e7_circblurext.jpg,-3.392332,-1.369576,circularblurringext,riri0610,2022-06-13_12h34.45.929,ratings,2022.1.1,Win32,60.05645307
-3.395462846,1.1889,1.566124336,2.4517,0,426,426,528,1,915_dc9fd40a3b5d64a180833a7bac86e7556c24f681f473fe255e41f936_orig.jpg,-3.09294,-0.918696,original,riri0610,2022-06-13_12h34.45.929,ratings,2022.1.1,Win32,60.05645307
-0.6053926,3.1269,-2.711105993,5.0253,0,427,427,19,1,48_2cc936b2483ab2944c9158e163342b874ef6c1492fd8fca08c0e096e_bw.jpg,-1.264224,-0.779604,blackwhite,riri0610,2022-06-13_12h34.45.929,ratings,2022.1.1,Win32,60.05645307
0.947571027,2.1752,-1.855659927,3.4902,0,428,428,225,1,403_57ac47f43882fc031a6067b1a388c0b2cbe8708dcbd2ff1019932eff_blur.jpg,-3.333332,-1.396824,blurring,riri0610,2022-06-13_12h34.45.929,ratings,2022.1.1,Win32,60.05645307
1.605606462,1.9654,-0.289535591,2.7587,0,429,429,256,1,416_5eb54976bb41ce2a6d129ef985f792e716f010fb9b69b15f50f5d2db_circblurint.jpg,-2.58766,2.602972,circularblurringint,riri0610,2022-06-13_12h34.45.929,ratings,2022.1.1,Win32,60.05645307
0.026321417,4.2889,-3.316498593,6.0623,0,430,430,555,1,1014_a5c212ca979d482cf94c2db7697aba75620391a64b030ab7ad2bbecf_blur.jpg,-3.174604,-1.374372,blurring,riri0610,2022-06-13_12h34.45.929,ratings,2022.1.1,Win32,60.05645307
1.210785201,1.5923,-2.053070558,2.4715,0,431,431,543,1,1005_b980c0747d20935bc63cc27a9e05ce2ff5bae98f859872ec48edd7f5_blur.jpg,3.428572,-0.476192,blurring,riri0610,2022-06-13_12h34.45.929,ratings,2022.1.1,Win32,60.05645307
1.72405284,1.1363,-3.303337885,1.9932,0,432,432,455,1,716_2ab64478147184c4df720a52cf621875addc9007cb2967e4a9a88909_circblurext.jpg,2.428484,0.0,circularblurringext,riri0610,2022-06-13_12h34.45.929,ratings,2022.1.1,Win32,60.05645307
0.131607087,2.2813,-0.039482126,3.7104,0,433,433,442,1,700_59cb565f134f1afd066d7b6d936c6511b7cb76de0e9cbb5ce15124ad_circblurint.jpg,0.0,0.0,circularblurringint,riri0610,2022-06-13_12h34.45.929,ratings,2022.1.1,Win32,60.05645307
2.092552684,1.3379,-0.960731735,3.6239,0,434,434,413,1,687_e3b018945792a574962235c88c553b7c318c75eec2596478e8a7b877_circblurext.jpg,3.63918,-0.42586,circularblurringext,riri0610,2022-06-13_12h34.45.929,ratings,2022.1.1,Win32,60.05645307
-1.171303075,1.8028,-0.394821261,2.8659,0,435,435,490,1,818_877aae033c31e3bbca4486321a5307f87cf53c576c546462d3daf194_circblurint.jpg,-1.277584,0.619436,circularblurringint,riri0610,2022-06-13_12h34.45.929,ratings,2022.1.1,Win32,60.05645307
0.973892444,1.359,-1.105499531,2.0732,0,436,436,395,1,663_aaf52107fe3a86392530d88b34e86f9d2b6820714cad98d1e3c2cb67_circblurext.jpg,2.58766,0.0918696,circularblurringext,riri0610,2022-06-13_12h34.45.929,ratings,2022.1.1,Win32,60.05645307
1.684570714,1.5417,0.631714018,2.4175,0,437,437,44,1,92_5d20d78a8e57e628c6930676473a4e0a485e715841efd6286c660020_edges.jpg,2.126984,0.0,edges,riri0610,2022-06-13_12h34.45.929,ratings,2022.1.1,Win32,60.05645307
0.947571027,1.336,0.829124648,2.338,0,438,438,43,1,92_5d20d78a8e57e628c6930676473a4e0a485e715841efd6286c660020_bw.jpg,2.126984,0.0,blackwhite,riri0610,2022-06-13_12h34.45.929,ratings,2022.1.1,Win32,60.05645307
-0.855446066,3.0841,-1.803017092,4.0821,0,439,439,315,1,459_46e25de472bb056cb470716d30937415f7344bfc4354d6eb710d8c9f_blur.jpg,0.03174604,0.0,blurring,riri0610,2022-06-13_12h34.45.929,ratings,2022.1.1,Win32,60.05645307
1.921463471,1.4892,-1.684570714,2.7512,0,440,440,468,1,741_2b218fb015e3da83db73cacdb52e61e0c2534c1fe255bb1c5c74d47f_orig.jpg,3.140096,0.448584,original,riri0610,2022-06-13_12h34.45.929,ratings,2022.1.1,Win32,60.05645307
-1.11866024,1.4105,-1.210785201,2.1659,0,441,441,205,1,381_5935a9f9796adce2f1539af6c75bcdc0c80d847a2ce9b77cf59b7672_bw.jpg,-1.327432,-0.442476,blackwhite,riri0610,2022-06-13_12h34.45.929,ratings,2022.1.1,Win32,60.05645307
1.658249297,1.1047,-1.131820949,2.3523,0,442,442,173,1,365_45a719cabbc9aa308c4fcb30d529489c6966ac4073874af84f665c61_circblurext.jpg,2.507936,-1.968252,circularblurringext,riri0610,2022-06-13_12h34.45.929,ratings,2022.1.1,Win32,60.05645307
1.434517249,1.4396,0.829124648,2.3733,0,443,443,189,1,369_c99797771115d7627d4abe3415f814497288f91a7be1a04c17c776b9_blur.jpg,3.619824,-0.174216,blurring,riri0610,2022-06-13_12h34.45.929,ratings,2022.1.1,Win32,60.05645307
