valence_slider.response,valence_slider.rt,arousal_slider.response,arousal_slider.rt,trials.thisRepN,trials.thisTrialN,trials.thisN,trials.thisIndex,trials.ran,img_name,vm,am,manipulation,participant,date,expName,psychopyVersion,OS,frameRate
0.087390762,83.182,0.074906367,84.068,0,0,0,543,1,1005_b980c0747d20935bc63cc27a9e05ce2ff5bae98f859872ec48edd7f5_blur.jpg,3.428572,-0.476192,blurring,vasb,2022-06-15_11h43.55.775,ratings,2022.1.1,MacIntel,29.41176471
-0.199750312,85.327,-0.212234707,86.08,0,1,1,91,1,258_d26019382777d2159a974a7654923e71598135ce2cd710cea1f92865_bw.jpg,3.497684,-0.61104,blackwhite,vasb,2022-06-15_11h43.55.775,ratings,2022.1.1,MacIntel,29.41176471
-2.509363296,3.549,-2.609238452,4.193,0,2,2,133,1,349_8809a67686d34844c915d7700e2ea72ad1c02ae232ae0d3cc0e458d4_bw.jpg,-3.619048,-0.2857144,blackwhite,vasb,2022-06-15_11h43.55.775,ratings,2022.1.1,MacIntel,29.41176471
2.646691635,3.283,2.40948814,3.916,0,3,3,462,1,736_bb85db1bcda8eb34299aa5791ac65a0a7c343266eb2d6e6e328ec0e1_orig.jpg,3.650792,-0.03174604,original,vasb,2022-06-15_11h43.55.775,ratings,2022.1.1,MacIntel,29.41176471
2.971285893,1.361,3.245942572,2.246,0,4,4,525,1,877_cab3efed0c9ff4552037df6c1ea4ea9713f915c94592a14dbf2799da_blur.jpg,3.174604,0.3174604,blurring,vasb,2022-06-15_11h43.55.775,ratings,2022.1.1,MacIntel,29.41176471
-3.29588015,4.882,2.484394507,7.025,0,5,5,404,1,686_6745b57686ad5d1bd6cf3e7ed5bc0243a154f8939e88e30321dfcfdb_edges.jpg,-1.523808,3.650792,edges,vasb,2022-06-15_11h43.55.775,ratings,2022.1.1,MacIntel,29.41176471
3.096129838,32.851,-2.209737828,33.695,0,6,6,31,1,60_ad52063167538de24f94d7dfd04808cb94cf8f426c40871d2f126505_bw.jpg,2.158732,0.0,blackwhite,vasb,2022-06-15_11h43.55.775,ratings,2022.1.1,MacIntel,29.41176471
0.024968789,4.625,-0.074906367,5.38,0,7,7,338,1,492_a1a4d288d3bc486c83c3b6a835c42891989f5ba781633932298a7676_edges.jpg,3.406892,-0.44522,edges,vasb,2022-06-15_11h43.55.775,ratings,2022.1.1,MacIntel,29.41176471
-1.348314607,2.865,1.573033708,4.214,0,8,8,328,1,468_8b69b13120daebadd8a4a3166e1419f2404395cba231307a4efa9fde_circblurint.jpg,2.031744,0.2539684,circularblurringint,vasb,2022-06-15_11h43.55.775,ratings,2022.1.1,MacIntel,29.41176471
-3.171036205,1.947,3.208489388,2.825,0,9,9,163,1,361_b5541309527dc3c2422f45a95ebb0ed32005e6fe10d0489a1ff1fbdc_bw.jpg,-3.987612,-0.2516452,blackwhite,vasb,2022-06-15_11h43.55.775,ratings,2022.1.1,MacIntel,29.41176471
0.898876404,2.148,-0.012484395,7.379,0,10,10,12,1,39_2fafccaa4dc69045a05845f59c6b3cd2edcf7e0e0c108b24e553afe0_orig.jpg,2.022756,0.463548,original,vasb,2022-06-15_11h43.55.775,ratings,2022.1.1,MacIntel,29.41176471
-1.298377029,4.127,-1.423220974,8.415,0,11,11,137,1,349_8809a67686d34844c915d7700e2ea72ad1c02ae232ae0d3cc0e458d4_circblurext.jpg,-3.619048,-0.2857144,circularblurringext,vasb,2022-06-15_11h43.55.775,ratings,2022.1.1,MacIntel,29.41176471
1.198501873,7.282,-2.596754057,8.982,0,12,12,252,1,416_5eb54976bb41ce2a6d129ef985f792e716f010fb9b69b15f50f5d2db_orig.jpg,-2.58766,2.602972,original,vasb,2022-06-15_11h43.55.775,ratings,2022.1.1,MacIntel,29.41176471
0.549313358,2.527,-3.857677903,4.015,0,13,13,255,1,416_5eb54976bb41ce2a6d129ef985f792e716f010fb9b69b15f50f5d2db_blur.jpg,-2.58766,2.602972,blurring,vasb,2022-06-15_11h43.55.775,ratings,2022.1.1,MacIntel,29.41176471
-0.299625468,2.349,-3.970037453,3.881,0,14,14,254,1,416_5eb54976bb41ce2a6d129ef985f792e716f010fb9b69b15f50f5d2db_edges.jpg,-2.58766,2.602972,edges,vasb,2022-06-15_11h43.55.775,ratings,2022.1.1,MacIntel,29.41176471
1.073657928,20.65,-1.410736579,21.315,0,15,15,42,1,92_5d20d78a8e57e628c6930676473a4e0a485e715841efd6286c660020_orig.jpg,2.126984,0.0,original,vasb,2022-06-15_11h43.55.775,ratings,2022.1.1,MacIntel,29.41176471
0.936329588,2.293,-2.122347066,3.625,0,16,16,431,1,694_7a14b8ab7c564dcb0f628c4de7f6cb54e4c5f6601f774bf167641c37_circblurext.jpg,1.819588,0.116144,circularblurringext,vasb,2022-06-15_11h43.55.775,ratings,2022.1.1,MacIntel,29.41176471
1.248439451,1.96,-1.610486891,2.982,0,17,17,377,1,620_9674719009d75dcfeaed7f15932c43e1fd1af5e25d47b8aadd61efe2_circblurext.jpg,-0.561364,1.142084,circularblurringext,vasb,2022-06-15_11h43.55.775,ratings,2022.1.1,MacIntel,29.41176471
-0.836454432,2.116,-2.546816479,3.515,0,18,18,194,1,379_eeaa6d9bf5a4ef205dc48bc505cf3a7f24ea86e99af9b371e03602a7_edges.jpg,-0.3926308,2.88936,edges,vasb,2022-06-15_11h43.55.775,ratings,2022.1.1,MacIntel,29.41176471
2.02247191,1.693,0.274656679,3.392,0,19,19,395,1,663_aaf52107fe3a86392530d88b34e86f9d2b6820714cad98d1e3c2cb67_circblurext.jpg,2.58766,0.0918696,circularblurringext,vasb,2022-06-15_11h43.55.775,ratings,2022.1.1,MacIntel,29.41176471
1.148564295,1.782,1.111111111,2.949,0,20,20,150,1,355_00a76f54934d36566dd0e7b091b8aa6a56d8e6b32d349aa578a10b45_orig.jpg,2.910052,0.3439152,original,vasb,2022-06-15_11h43.55.775,ratings,2022.1.1,MacIntel,29.41176471
0.024968789,6.815,-3.420724095,7.715,0,21,21,552,1,1014_a5c212ca979d482cf94c2db7697aba75620391a64b030ab7ad2bbecf_orig.jpg,-3.174604,-1.374372,original,vasb,2022-06-15_11h43.55.775,ratings,2022.1.1,MacIntel,29.41176471
-0.024968789,1.747,-3.29588015,2.615,0,22,22,368,1,616_05a637f5281666f53d4e2ef69351485fc21d629b37ee2006b2076eb6_edges.jpg,-2.380952,-0.832364,edges,vasb,2022-06-15_11h43.55.775,ratings,2022.1.1,MacIntel,29.41176471
0.861423221,2.096,-3.308364544,2.95,0,23,23,221,1,396_208259ea431d47bb7f3946213eb099834eb119756ce304ad473d4d9f_circblurext.jpg,2.857144,-0.3809524,circularblurringext,vasb,2022-06-15_11h43.55.775,ratings,2022.1.1,MacIntel,29.41176471
1.260923845,1.625,1.598002497,2.48,0,24,24,523,1,877_cab3efed0c9ff4552037df6c1ea4ea9713f915c94592a14dbf2799da_bw.jpg,3.174604,0.3174604,blackwhite,vasb,2022-06-15_11h43.55.775,ratings,2022.1.1,MacIntel,29.41176471
0.411985019,2.992,-3.54556804,4.893,0,25,25,237,1,410_9633c4ff6e8888fcfca59a60ca86e9606d3e0736500a254101bdf295_blur.jpg,-0.3677892,2.981028,blurring,vasb,2022-06-15_11h43.55.775,ratings,2022.1.1,MacIntel,29.41176471
2.234706617,4.515,2.372034956,5.648,0,26,26,125,1,347_27f0e47c2722605b950ccf9fa900f78271e4c3c874064ab5dacac160_circblurext.jpg,1.838948,0.3097172,circularblurringext,vasb,2022-06-15_11h43.55.775,ratings,2022.1.1,MacIntel,29.41176471
-0.037453184,2.082,-0.024968789,6.249,0,27,27,486,1,818_877aae033c31e3bbca4486321a5307f87cf53c576c546462d3daf194_orig.jpg,-1.277584,0.619436,original,vasb,2022-06-15_11h43.55.775,ratings,2022.1.1,MacIntel,29.41176471
1.872659176,4.382,0.362047441,5.946,0,28,28,467,1,736_bb85db1bcda8eb34299aa5791ac65a0a7c343266eb2d6e6e328ec0e1_circblurext.jpg,3.650792,-0.03174604,circularblurringext,vasb,2022-06-15_11h43.55.775,ratings,2022.1.1,MacIntel,29.41176471
1.697877653,26.796,0.611735331,60.46,0,29,29,16,1,39_2fafccaa4dc69045a05845f59c6b3cd2edcf7e0e0c108b24e553afe0_circblurint.jpg,2.022756,0.463548,circularblurringint,vasb,2022-06-15_11h43.55.775,ratings,2022.1.1,MacIntel,29.41176471
-1.248439451,3.494,-3.895131086,4.414,0,30,30,238,1,410_9633c4ff6e8888fcfca59a60ca86e9606d3e0736500a254101bdf295_circblurint.jpg,-0.3677892,2.981028,circularblurringint,vasb,2022-06-15_11h43.55.775,ratings,2022.1.1,MacIntel,29.41176471
1.285892634,6.459,-0.012484395,8.981,0,31,31,484,1,759_95e1c46ed9a337414d5c8eada8fa8b9632e18751f5ce6ed587806e91_circblurint.jpg,2.126984,0.0,circularblurringint,vasb,2022-06-15_11h43.55.775,ratings,2022.1.1,MacIntel,29.41176471
-0.274656679,2.082,-0.037453184,2.747,0,32,32,93,1,258_d26019382777d2159a974a7654923e71598135ce2cd710cea1f92865_blur.jpg,3.497684,-0.61104,blurring,vasb,2022-06-15_11h43.55.775,ratings,2022.1.1,MacIntel,29.41176471
0.998751561,1.682,-2.933832709,2.481,0,33,33,348,1,498_305b74cdc4784d9d25e72724302e5402def70177ea31ae7e25fab66b_orig.jpg,3.04762,-0.444444,original,vasb,2022-06-15_11h43.55.775,ratings,2022.1.1,MacIntel,29.41176471
1.535580524,1.527,-0.274656679,2.66,0,34,34,154,1,355_00a76f54934d36566dd0e7b091b8aa6a56d8e6b32d349aa578a10b45_circblurint.jpg,2.910052,0.3439152,circularblurringint,vasb,2022-06-15_11h43.55.775,ratings,2022.1.1,MacIntel,29.41176471
2.234706617,1.448,2.197253433,2.095,0,35,35,449,1,709_69c01dcde028a2a1a913f1a2a5026ae1748484f75c89217a040c6791_circblurext.jpg,1.432444,-0.01935732,circularblurringext,vasb,2022-06-15_11h43.55.775,ratings,2022.1.1,MacIntel,29.41176471
-1.27340824,3.282,-3.820224719,5.026,0,36,36,575,1,1039_d64da8480fc6e94dcdc513237d600570ae0b9fe48795ac6a8b2d29a7_circblurext.jpg,-2.507936,-1.142856,circularblurringext,vasb,2022-06-15_11h43.55.775,ratings,2022.1.1,MacIntel,29.41176471
0.374531835,11.149,0.224719101,12.883,0,37,37,54,1,137_0e6a04243c0a42a5e2528a2d181255ca2a4b7bd6e7978c5c2059c69f_orig.jpg,-0.95238,2.095236,original,vasb,2022-06-15_11h43.55.775,ratings,2022.1.1,MacIntel,29.41176471
1.548064919,1.748,1.77278402,2.725,0,38,38,201,1,380_34772591c787182a37724027eac6948ebc9d4064f6a601d23b923b8e_blur.jpg,2.222224,-0.063492,blurring,vasb,2022-06-15_11h43.55.775,ratings,2022.1.1,MacIntel,29.41176471
1.747815231,1.625,1.498127341,2.523,0,39,39,569,1,1037_e2eb929a6de79a63ce6cfe5321fcb74a203b134e4094932d90b01d99_circblurext.jpg,2.651956,0.0,circularblurringext,vasb,2022-06-15_11h43.55.775,ratings,2022.1.1,MacIntel,29.41176471
-2.596754057,2.249,-3.083645443,2.948,0,40,40,130,1,349_18d92ef5c21ca70a3dd237aad251594e1688bbe01d8cff37b89c46b8_circblurint.jpg,-2.74874,-1.258228,circularblurringint,vasb,2022-06-15_11h43.55.775,ratings,2022.1.1,MacIntel,29.41176471
-0.037453184,2.327,-3.370786517,3.293,0,41,41,314,1,459_46e25de472bb056cb470716d30937415f7344bfc4354d6eb710d8c9f_edges.jpg,0.03174604,0.0,edges,vasb,2022-06-15_11h43.55.775,ratings,2022.1.1,MacIntel,29.41176471
-0.74906367,2.081,-2.883895131,2.895,0,42,42,207,1,381_5935a9f9796adce2f1539af6c75bcdc0c80d847a2ce9b77cf59b7672_blur.jpg,-1.327432,-0.442476,blurring,vasb,2022-06-15_11h43.55.775,ratings,2022.1.1,MacIntel,29.41176471
-3.820224719,1.858,0.449438202,5.147,0,43,43,331,1,482_a1cd28915c5044c018195ab0fff10dcc95e385246b045a7cd4463ff7_bw.jpg,-3.361852,-1.555612,blackwhite,vasb,2022-06-15_11h43.55.775,ratings,2022.1.1,MacIntel,29.41176471
-3.882646692,1.297,-1.460674157,2.161,0,44,44,528,1,915_dc9fd40a3b5d64a180833a7bac86e7556c24f681f473fe255e41f936_orig.jpg,-3.09294,-0.918696,original,vasb,2022-06-15_11h43.55.775,ratings,2022.1.1,MacIntel,29.41176471
-3.857677903,1.616,-3.470661673,2.329,0,45,45,418,1,692_7d7eaf20e6de8956f0fca7500ace97a8599aa8b605a7d690cdb28724_circblurint.jpg,-2.063492,-1.26984,circularblurringint,vasb,2022-06-15_11h43.55.775,ratings,2022.1.1,MacIntel,29.41176471
0.936329588,2.413,-3.695380774,3.558,0,46,46,301,1,453_54f106fd1d4b65fa4aa347407127fc30d49f791e81aee3a0bbe44489_bw.jpg,2.222224,0.0,blackwhite,vasb,2022-06-15_11h43.55.775,ratings,2022.1.1,MacIntel,29.41176471
-0.012484395,1.479,-0.13732834,4.348,0,47,47,478,1,748_e519892faa7c772a0afaf9eeff36cf0e411574027ab3d9aa4947a048_circblurint.jpg,-1.813112,3.307432,circularblurringint,vasb,2022-06-15_11h43.55.775,ratings,2022.1.1,MacIntel,29.41176471
-0.162297129,1.513,-0.112359551,2.844,0,48,48,310,1,455_34a7d8167619d110206c369e3f7dce8a3f99db763a9d8e2b956501d3_circblurint.jpg,-2.526412,-0.3827896,circularblurringint,vasb,2022-06-15_11h43.55.775,ratings,2022.1.1,MacIntel,29.41176471
2.584269663,1.76,2.671660424,2.529,0,49,49,231,1,407_578d31d32e806706dde2563213f130b90e621abfed0e47ecabd85d27_blur.jpg,3.5873,-0.444444,blurring,vasb,2022-06-15_11h43.55.775,ratings,2022.1.1,MacIntel,29.41176471
-3.857677903,1.725,1.223470662,2.662,0,50,50,335,1,482_a1cd28915c5044c018195ab0fff10dcc95e385246b045a7cd4463ff7_circblurext.jpg,-3.361852,-1.555612,circularblurringext,vasb,2022-06-15_11h43.55.775,ratings,2022.1.1,MacIntel,29.41176471
-0.461922597,3.613,-0.549313358,4.958,0,51,51,542,1,1005_b980c0747d20935bc63cc27a9e05ce2ff5bae98f859872ec48edd7f5_edges.jpg,3.428572,-0.476192,edges,vasb,2022-06-15_11h43.55.775,ratings,2022.1.1,MacIntel,29.41176471
0.087390762,1.393,0.037453184,2.165,0,52,52,23,1,48_2cc936b2483ab2944c9158e163342b874ef6c1492fd8fca08c0e096e_circblurext.jpg,-1.264224,-0.779604,circularblurringext,vasb,2022-06-15_11h43.55.775,ratings,2022.1.1,MacIntel,29.41176471
0.062421973,1.226,0.037453184,1.929,0,53,53,308,1,455_34a7d8167619d110206c369e3f7dce8a3f99db763a9d8e2b956501d3_edges.jpg,-2.526412,-0.3827896,edges,vasb,2022-06-15_11h43.55.775,ratings,2022.1.1,MacIntel,29.41176471
-0.24968789,3.192,-1.63545568,4.148,0,54,54,513,1,858_2f6539ee36aba48c38dc716d4f7c3ae93367d6ddf23ab41745d4172c_blur.jpg,0.0623832,0.176752,blurring,vasb,2022-06-15_11h43.55.775,ratings,2022.1.1,MacIntel,29.41176471
1.086142322,4.192,-3.171036205,4.979,0,55,55,78,1,242_85283f6935a89812ab229dcad9ba184529c9242ac3106d768ecf3ab3_orig.jpg,2.14918,-0.2949852,original,vasb,2022-06-15_11h43.55.775,ratings,2022.1.1,MacIntel,29.41176471
1.985018727,2.315,2.559300874,7.082,0,56,56,464,1,736_bb85db1bcda8eb34299aa5791ac65a0a7c343266eb2d6e6e328ec0e1_edges.jpg,3.650792,-0.03174604,edges,vasb,2022-06-15_11h43.55.775,ratings,2022.1.1,MacIntel,29.41176471
1.173533084,3.013,1.747815231,3.991,0,57,57,548,1,1010_06d15f44b979c086561137000ec070ba4cd479856f92840a7850b2bf_edges.jpg,0.189786,-0.189786,edges,vasb,2022-06-15_11h43.55.775,ratings,2022.1.1,MacIntel,29.41176471
1.897627965,1.858,1.885143571,2.726,0,58,58,172,1,365_45a719cabbc9aa308c4fcb30d529489c6966ac4073874af84f665c61_circblurint.jpg,2.507936,-1.968252,circularblurringint,vasb,2022-06-15_11h43.55.775,ratings,2022.1.1,MacIntel,29.41176471
-1.947565543,3.049,0.561797753,4.13,0,59,59,396,1,683_a004ad18331da968da5debdd15e1447dd7748750af0bc6c57b844200_orig.jpg,-2.91956,2.466524,original,vasb,2022-06-15_11h43.55.775,ratings,2022.1.1,MacIntel,29.41176471
-0.13732834,1.214,-0.024968789,1.958,0,60,60,22,1,48_2cc936b2483ab2944c9158e163342b874ef6c1492fd8fca08c0e096e_circblurint.jpg,-1.264224,-0.779604,circularblurringint,vasb,2022-06-15_11h43.55.775,ratings,2022.1.1,MacIntel,29.41176471
-3.29588015,4.392,-2.896379526,5.494,0,61,61,323,1,460_e06b3af7ff2f2bfb5f9b6e3d5dc25b9aaa40b84823fac8fd934621bd_circblurext.jpg,-3.430992,-1.607468,circularblurringext,vasb,2022-06-15_11h43.55.775,ratings,2022.1.1,MacIntel,29.41176471
0.037453184,1.28,0.087390762,2.191,0,62,62,59,1,137_0e6a04243c0a42a5e2528a2d181255ca2a4b7bd6e7978c5c2059c69f_circblurext.jpg,-0.95238,2.095236,circularblurringext,vasb,2022-06-15_11h43.55.775,ratings,2022.1.1,MacIntel,29.41176471
1.310861423,2.481,-2.821473159,3.425,0,63,63,430,1,694_7a14b8ab7c564dcb0f628c4de7f6cb54e4c5f6601f774bf167641c37_circblurint.jpg,1.819588,0.116144,circularblurringint,vasb,2022-06-15_11h43.55.775,ratings,2022.1.1,MacIntel,29.41176471
1.323345818,1.48,1.797752809,3.264,0,64,64,198,1,380_34772591c787182a37724027eac6948ebc9d4064f6a601d23b923b8e_orig.jpg,2.222224,-0.063492,original,vasb,2022-06-15_11h43.55.775,ratings,2022.1.1,MacIntel,29.41176471
2.621722846,1.446,2.933832709,2.314,0,65,65,40,1,82_43f4d5aec7c2e5bd495473f6708a0f2d47c9fe34e1fe9436646cb036_circblurint.jpg,2.022756,0.505688,circularblurringint,vasb,2022-06-15_11h43.55.775,ratings,2022.1.1,MacIntel,29.41176471
3.570536829,1.325,3.670411985,2.214,0,66,66,123,1,347_27f0e47c2722605b950ccf9fa900f78271e4c3c874064ab5dacac160_blur.jpg,1.838948,0.3097172,blurring,vasb,2022-06-15_11h43.55.775,ratings,2022.1.1,MacIntel,29.41176471
2.209737828,1.548,2.122347066,2.347,0,67,67,524,1,877_cab3efed0c9ff4552037df6c1ea4ea9713f915c94592a14dbf2799da_edges.jpg,3.174604,0.3174604,edges,vasb,2022-06-15_11h43.55.775,ratings,2022.1.1,MacIntel,29.41176471
-2.284644195,2.959,-3.370786517,4.047,0,68,68,214,1,394_8e3a0cb945144d53bd1ace04b6256237ed9dcbbd9cb83f8a4886b0e6_circblurint.jpg,-2.593884,2.651956,circularblurringint,vasb,2022-06-15_11h43.55.775,ratings,2022.1.1,MacIntel,29.41176471
-0.174781523,3.814,-0.099875156,4.581,0,69,69,506,1,855_66d893451dfd1e7615132071c6c8a82b02dc2b37781cd89400883b26_edges.jpg,2.69484,0.2143624,edges,vasb,2022-06-15_11h43.55.775,ratings,2022.1.1,MacIntel,29.41176471
-1.972534332,3.628,0.599250936,4.859,0,70,70,271,1,434_ba36d91204d7e578001f6a545d7501e65d209554def5a3c8b7583825_bw.jpg,-3.523808,1.428572,blackwhite,vasb,2022-06-15_11h43.55.775,ratings,2022.1.1,MacIntel,29.41176471
-0.099875156,1.28,-0.13732834,2.013,0,71,71,595,1,1239_cee00457f4cfb76a407b12fd5ad714d440a4614c1e5467ee16caf618_bw.jpg,-0.03174604,0.190476,blackwhite,vasb,2022-06-15_11h43.55.775,ratings,2022.1.1,MacIntel,29.41176471
-1.63545568,2.992,-1.810237203,4.378,0,72,72,248,1,414_0187bdf7007109b487865b6a9d388997a6817acf052a6a7cdd5b39d9_edges.jpg,-2.786708,-1.133056,edges,vasb,2022-06-15_11h43.55.775,ratings,2022.1.1,MacIntel,29.41176471
-1.360799001,3.126,-2.784019975,4.859,0,73,73,394,1,663_aaf52107fe3a86392530d88b34e86f9d2b6820714cad98d1e3c2cb67_circblurint.jpg,2.58766,0.0918696,circularblurringint,vasb,2022-06-15_11h43.55.775,ratings,2022.1.1,MacIntel,29.41176471
0.88639201,1.648,-3.258426966,2.493,0,74,74,60,1,156_08e8cf8f04630e9213e610580de73f51572d1d589878648700bae4dc_orig.jpg,2.222224,0.0,original,vasb,2022-06-15_11h43.55.775,ratings,2022.1.1,MacIntel,29.41176471
-2.15980025,3.982,-0.174781523,5.713,0,75,75,388,1,646_577760d718dab44c6f04d77408c5644a120065ce07a9503957d0850a_circblurint.jpg,-2.690668,2.61324,circularblurringint,vasb,2022-06-15_11h43.55.775,ratings,2022.1.1,MacIntel,29.41176471
2.034956305,1.426,2.084893883,2.647,0,76,76,5,1,13_771f4fcf0a212d25d6a78565e7f34cc5ddd823e7afbdc77ef063326e_circblurext.jpg,2.190476,0.0,circularblurringext,vasb,2022-06-15_11h43.55.775,ratings,2022.1.1,MacIntel,29.41176471
-1.872659176,3.015,-1.810237203,6.814,0,77,77,373,1,620_9674719009d75dcfeaed7f15932c43e1fd1af5e25d47b8aadd61efe2_bw.jpg,-0.561364,1.142084,blackwhite,vasb,2022-06-15_11h43.55.775,ratings,2022.1.1,MacIntel,29.41176471
1.560549313,1.728,1.27340824,2.649,0,78,78,72,1,236_f645730e1eb06155418c9a571329cc7fa320654fcaaedf1048b5cc11_orig.jpg,2.253968,0.0,original,vasb,2022-06-15_11h43.55.775,ratings,2022.1.1,MacIntel,29.41176471
1.011235955,1.848,-1.148564295,2.682,0,79,79,304,1,453_54f106fd1d4b65fa4aa347407127fc30d49f791e81aee3a0bbe44489_circblurint.jpg,2.222224,0.0,circularblurringint,vasb,2022-06-15_11h43.55.775,ratings,2022.1.1,MacIntel,29.41176471
-3.433208489,1.727,1.048689139,2.793,0,80,80,334,1,482_a1cd28915c5044c018195ab0fff10dcc95e385246b045a7cd4463ff7_circblurint.jpg,-3.361852,-1.555612,circularblurringint,vasb,2022-06-15_11h43.55.775,ratings,2022.1.1,MacIntel,29.41176471
2.059925094,1.793,1.722846442,3.079,0,81,81,175,1,368_6507b94d7d0199f14efd3706db30c9c44b96085f84e9cc7792e3e0ae_bw.jpg,1.959544,0.400336,blackwhite,vasb,2022-06-15_11h43.55.775,ratings,2022.1.1,MacIntel,29.41176471
-0.212234707,2.859,-0.187265918,3.613,0,82,82,435,1,694_f80f33613b268beffd6c044537cf3b44a84683d6e889bc37b8e9c34b_blur.jpg,-0.3785616,3.34728,blurring,vasb,2022-06-15_11h43.55.775,ratings,2022.1.1,MacIntel,29.41176471
1.011235955,2.361,-3.757802747,3.094,0,83,83,293,1,442_7449d79dae5d652af9b2429872cabdef938646ba024db2f431b3b28d_circblurext.jpg,1.619048,0.126984,circularblurringext,vasb,2022-06-15_11h43.55.775,ratings,2022.1.1,MacIntel,29.41176471
0.911360799,1.792,-3.370786517,2.747,0,84,84,100,1,267_792043debad81ce271cec5b3c3bd9d264efc13f362bec9c7a3f72fe7_circblurint.jpg,1.980616,0.2107036,circularblurringint,vasb,2022-06-15_11h43.55.775,ratings,2022.1.1,MacIntel,29.41176471
-0.774032459,2.194,-0.274656679,3.747,0,85,85,161,1,358_157f8ac929713531a15b1ecf115e7b659cb90e83d675251e368d165f_circblurext.jpg,-3.777776,-0.571428,circularblurringext,vasb,2022-06-15_11h43.55.775,ratings,2022.1.1,MacIntel,29.41176471
0.424469413,2.55,-3.495630462,3.528,0,86,86,216,1,396_208259ea431d47bb7f3946213eb099834eb119756ce304ad473d4d9f_orig.jpg,2.857144,-0.3809524,original,vasb,2022-06-15_11h43.55.775,ratings,2022.1.1,MacIntel,29.41176471
1.760299625,1.963,0.786516854,3.412,0,87,87,276,1,440_9bf7e8609729bf888835168834da6c3ff30b75d0d4f36e2ee6918bcc_orig.jpg,-2.284164,2.710028,original,vasb,2022-06-15_11h43.55.775,ratings,2022.1.1,MacIntel,29.41176471
-3.583021223,2.025,3.345817728,2.994,0,88,88,496,1,824_b1d91cc824ce0d3d383d3147da88d3d6dbaf6be918bab79e3ec8f501_circblurint.jpg,-3.645176,-1.432784,circularblurringint,vasb,2022-06-15_11h43.55.775,ratings,2022.1.1,MacIntel,29.41176471
-3.770287141,1.592,0.599250936,2.491,0,89,89,251,1,414_0187bdf7007109b487865b6a9d388997a6817acf052a6a7cdd5b39d9_circblurext.jpg,-2.786708,-1.133056,circularblurringext,vasb,2022-06-15_11h43.55.775,ratings,2022.1.1,MacIntel,29.41176471
-3.707865169,1.926,1.785268414,3.648,0,90,90,165,1,361_b5541309527dc3c2422f45a95ebb0ed32005e6fe10d0489a1ff1fbdc_blur.jpg,-3.987612,-0.2516452,blurring,vasb,2022-06-15_11h43.55.775,ratings,2022.1.1,MacIntel,29.41176471
-1.285892634,5.183,-3.04619226,6.793,0,91,91,515,1,858_2f6539ee36aba48c38dc716d4f7c3ae93367d6ddf23ab41745d4172c_circblurext.jpg,0.0623832,0.176752,circularblurringext,vasb,2022-06-15_11h43.55.775,ratings,2022.1.1,MacIntel,29.41176471
1.27340824,2.015,0.436953808,3.015,0,92,92,485,1,759_95e1c46ed9a337414d5c8eada8fa8b9632e18751f5ce6ed587806e91_circblurext.jpg,2.126984,0.0,circularblurringext,vasb,2022-06-15_11h43.55.775,ratings,2022.1.1,MacIntel,29.41176471
-1.223470662,3.848,-3.508114856,4.715,0,93,93,370,1,616_05a637f5281666f53d4e2ef69351485fc21d629b37ee2006b2076eb6_circblurint.jpg,-2.380952,-0.832364,circularblurringint,vasb,2022-06-15_11h43.55.775,ratings,2022.1.1,MacIntel,29.41176471
-3.4082397,1.453,-0.611735331,2.391,0,94,94,532,1,915_dc9fd40a3b5d64a180833a7bac86e7556c24f681f473fe255e41f936_circblurint.jpg,-3.09294,-0.918696,circularblurringint,vasb,2022-06-15_11h43.55.775,ratings,2022.1.1,MacIntel,29.41176471
1.036204744,3.325,-2.971285893,4.326,0,95,95,453,1,716_2ab64478147184c4df720a52cf621875addc9007cb2967e4a9a88909_blur.jpg,2.428484,0.0,blurring,vasb,2022-06-15_11h43.55.775,ratings,2022.1.1,MacIntel,29.41176471
-3.433208489,2.08,0.711610487,3.648,0,96,96,530,1,915_dc9fd40a3b5d64a180833a7bac86e7556c24f681f473fe255e41f936_edges.jpg,-3.09294,-0.918696,edges,vasb,2022-06-15_11h43.55.775,ratings,2022.1.1,MacIntel,29.41176471
1.548064919,2.115,1.323345818,3.195,0,97,97,176,1,368_6507b94d7d0199f14efd3706db30c9c44b96085f84e9cc7792e3e0ae_edges.jpg,1.959544,0.400336,edges,vasb,2022-06-15_11h43.55.775,ratings,2022.1.1,MacIntel,29.41176471
0.811485643,1.359,-2.209737828,2.428,0,98,98,97,1,267_792043debad81ce271cec5b3c3bd9d264efc13f362bec9c7a3f72fe7_bw.jpg,1.980616,0.2107036,blackwhite,vasb,2022-06-15_11h43.55.775,ratings,2022.1.1,MacIntel,29.41176471
2.471910112,2.261,1.610486891,3.36,0,99,99,266,1,431_ab5a1dbbe9292ac7f74e276cdabcd372e2c1f852ff34bf7cc6646ef8_edges.jpg,3.102584,0.354334,edges,vasb,2022-06-15_11h43.55.775,ratings,2022.1.1,MacIntel,29.41176471
0.911360799,1.292,-0.362047441,3.282,0,100,100,63,1,156_08e8cf8f04630e9213e610580de73f51572d1d589878648700bae4dc_blur.jpg,2.222224,0.0,blurring,vasb,2022-06-15_11h43.55.775,ratings,2022.1.1,MacIntel,29.41176471
-0.212234707,1.413,-0.212234707,2.112,0,101,101,362,1,508_a7a9519cdc7aad6844030f4e6cd96cffd1b9c49b71e20ea52789bda2_edges.jpg,-3.000388,-1.29694,edges,vasb,2022-06-15_11h43.55.775,ratings,2022.1.1,MacIntel,29.41176471
-1.885143571,3.76,-2.52184769,6.281,0,102,102,440,1,700_59cb565f134f1afd066d7b6d936c6511b7cb76de0e9cbb5ce15124ad_edges.jpg,0.0,0.0,edges,vasb,2022-06-15_11h43.55.775,ratings,2022.1.1,MacIntel,29.41176471
0.099875156,2.091,0.087390762,2.89,0,103,103,224,1,403_57ac47f43882fc031a6067b1a388c0b2cbe8708dcbd2ff1019932eff_edges.jpg,-3.333332,-1.396824,edges,vasb,2022-06-15_11h43.55.775,ratings,2022.1.1,MacIntel,29.41176471
-3.270911361,1.431,3.645443196,2.525,0,104,104,497,1,824_b1d91cc824ce0d3d383d3147da88d3d6dbaf6be918bab79e3ec8f501_circblurext.jpg,-3.645176,-1.432784,circularblurringext,vasb,2022-06-15_11h43.55.775,ratings,2022.1.1,MacIntel,29.41176471
0.811485643,1.725,-3.196004994,4.413,0,105,105,288,1,442_7449d79dae5d652af9b2429872cabdef938646ba024db2f431b3b28d_orig.jpg,1.619048,0.126984,original,vasb,2022-06-15_11h43.55.775,ratings,2022.1.1,MacIntel,29.41176471
0.848938826,9.891,-3.508114856,10.846,0,106,106,253,1,416_5eb54976bb41ce2a6d129ef985f792e716f010fb9b69b15f50f5d2db_bw.jpg,-2.58766,2.602972,blackwhite,vasb,2022-06-15_11h43.55.775,ratings,2022.1.1,MacIntel,29.41176471
-1.323345818,1.482,-3.645443196,2.314,0,107,107,131,1,349_18d92ef5c21ca70a3dd237aad251594e1688bbe01d8cff37b89c46b8_circblurext.jpg,-2.74874,-1.258228,circularblurringext,vasb,2022-06-15_11h43.55.775,ratings,2022.1.1,MacIntel,29.41176471
3.433208489,5.927,0.786516854,6.714,0,108,108,264,1,431_ab5a1dbbe9292ac7f74e276cdabcd372e2c1f852ff34bf7cc6646ef8_orig.jpg,3.102584,0.354334,original,vasb,2022-06-15_11h43.55.775,ratings,2022.1.1,MacIntel,29.41176471
0.736579276,1.914,-3.29588015,2.792,0,109,109,144,1,354_e46c3ec6fb00773f64f2bcd212385f253c389808fe724b7cf8611051_orig.jpg,2.018292,0.0,original,vasb,2022-06-15_11h43.55.775,ratings,2022.1.1,MacIntel,29.41176471
1.435705368,2.613,-0.736579276,4.28,0,110,110,34,1,60_ad52063167538de24f94d7dfd04808cb94cf8f426c40871d2f126505_circblurint.jpg,2.158732,0.0,circularblurringint,vasb,2022-06-15_11h43.55.775,ratings,2022.1.1,MacIntel,29.41176471
-1.423220974,1.88,-3.782771536,2.927,0,111,111,364,1,508_a7a9519cdc7aad6844030f4e6cd96cffd1b9c49b71e20ea52789bda2_circblurint.jpg,-3.000388,-1.29694,circularblurringint,vasb,2022-06-15_11h43.55.775,ratings,2022.1.1,MacIntel,29.41176471
1.348314607,1.658,-3.008739076,2.782,0,112,112,149,1,354_e46c3ec6fb00773f64f2bcd212385f253c389808fe724b7cf8611051_circblurext.jpg,2.018292,0.0,circularblurringext,vasb,2022-06-15_11h43.55.775,ratings,2022.1.1,MacIntel,29.41176471
-3.583021223,1.681,2.634207241,2.748,0,113,113,495,1,824_b1d91cc824ce0d3d383d3147da88d3d6dbaf6be918bab79e3ec8f501_blur.jpg,-3.645176,-1.432784,blurring,vasb,2022-06-15_11h43.55.775,ratings,2022.1.1,MacIntel,29.41176471
-0.074906367,1.981,-2.808988764,5.448,0,114,114,550,1,1010_06d15f44b979c086561137000ec070ba4cd479856f92840a7850b2bf_circblurint.jpg,0.189786,-0.189786,circularblurringint,vasb,2022-06-15_11h43.55.775,ratings,2022.1.1,MacIntel,29.41176471
-3.895131086,1.747,-0.799001248,2.662,0,115,115,529,1,915_dc9fd40a3b5d64a180833a7bac86e7556c24f681f473fe255e41f936_bw.jpg,-3.09294,-0.918696,blackwhite,vasb,2022-06-15_11h43.55.775,ratings,2022.1.1,MacIntel,29.41176471
-3.845193508,1.991,-3.745318352,2.746,0,116,116,416,1,692_7d7eaf20e6de8956f0fca7500ace97a8599aa8b605a7d690cdb28724_edges.jpg,-2.063492,-1.26984,edges,vasb,2022-06-15_11h43.55.775,ratings,2022.1.1,MacIntel,29.41176471
1.298377029,2.046,-2.696629213,2.927,0,117,117,305,1,453_54f106fd1d4b65fa4aa347407127fc30d49f791e81aee3a0bbe44489_circblurext.jpg,2.222224,0.0,circularblurringext,vasb,2022-06-15_11h43.55.775,ratings,2022.1.1,MacIntel,29.41176471
-3.907615481,2.583,-0.324594257,4.759,0,118,118,243,1,411_adfd0d5782129756321ff671d0cfb712528504c66c863df11aabd1e7_blur.jpg,-3.392332,-1.369576,blurring,vasb,2022-06-15_11h43.55.775,ratings,2022.1.1,MacIntel,29.41176471
1.947565543,2.325,-2.784019975,3.425,0,119,119,169,1,365_45a719cabbc9aa308c4fcb30d529489c6966ac4073874af84f665c61_bw.jpg,2.507936,-1.968252,blackwhite,vasb,2022-06-15_11h43.55.775,ratings,2022.1.1,MacIntel,29.41176471
1.460674157,1.497,-2.90886392,2.393,0,120,120,378,1,640_0ddb4981a5f5842ed5b4f7ef941be53779189df5e718b1fc5475ad80_orig.jpg,2.571428,-1.873016,original,vasb,2022-06-15_11h43.55.775,ratings,2022.1.1,MacIntel,29.41176471
-0.187265918,2.748,-3.595505618,3.595,0,121,121,69,1,172_c641c6c56ca6b594b773084e1363c852abdb65f988d7ff802ee503f2_blur.jpg,0.379572,0.01725328,blurring,vasb,2022-06-15_11h43.55.775,ratings,2022.1.1,MacIntel,29.41176471
1.52309613,1.927,0.237203496,2.914,0,122,122,499,1,854_081a8409e4d6d10923b2dedcc16a3fca405fcd602e55a20d84cac69d_bw.jpg,3.088264,1.21538,blackwhite,vasb,2022-06-15_11h43.55.775,ratings,2022.1.1,MacIntel,29.41176471
-0.049937578,3.546,-0.099875156,4.613,0,123,123,436,1,694_f80f33613b268beffd6c044537cf3b44a84683d6e889bc37b8e9c34b_circblurint.jpg,-0.3785616,3.34728,circularblurringint,vasb,2022-06-15_11h43.55.775,ratings,2022.1.1,MacIntel,29.41176471
-1.210986267,2.794,-0.88639201,4.258,0,124,124,372,1,620_9674719009d75dcfeaed7f15932c43e1fd1af5e25d47b8aadd61efe2_orig.jpg,-0.561364,1.142084,original,vasb,2022-06-15_11h43.55.775,ratings,2022.1.1,MacIntel,29.41176471
1.061173533,1.427,0.624219725,3.193,0,125,125,303,1,453_54f106fd1d4b65fa4aa347407127fc30d49f791e81aee3a0bbe44489_blur.jpg,2.222224,0.0,blurring,vasb,2022-06-15_11h43.55.775,ratings,2022.1.1,MacIntel,29.41176471
0.049937578,3.78,3.220973783,5.449,0,126,126,402,1,686_6745b57686ad5d1bd6cf3e7ed5bc0243a154f8939e88e30321dfcfdb_orig.jpg,-1.523808,3.650792,original,vasb,2022-06-15_11h43.55.775,ratings,2022.1.1,MacIntel,29.41176471
2.059925094,3.848,1.398252185,4.849,0,127,127,184,1,369_98db62a1bdabfd1bc551180da6658005b461585cd21614633cf76470_circblurint.jpg,2.190476,-0.03174604,circularblurringint,vasb,2022-06-15_11h43.55.775,ratings,2022.1.1,MacIntel,29.41176471
2.546816479,1.428,1.660424469,2.259,0,128,128,178,1,368_6507b94d7d0199f14efd3706db30c9c44b96085f84e9cc7792e3e0ae_circblurint.jpg,1.959544,0.400336,circularblurringint,vasb,2022-06-15_11h43.55.775,ratings,2022.1.1,MacIntel,29.41176471
-1.298377029,1.863,-2.871410737,3.926,0,129,129,392,1,663_aaf52107fe3a86392530d88b34e86f9d2b6820714cad98d1e3c2cb67_edges.jpg,2.58766,0.0918696,edges,vasb,2022-06-15_11h43.55.775,ratings,2022.1.1,MacIntel,29.41176471
1.672908864,1.716,0.961298377,3.815,0,130,130,285,1,440_dc6413e2b65369ee2587f4d85621742fe4ca87392d0a8ad2ea7d94e3_blur.jpg,-3.016216,1.69404,blurring,vasb,2022-06-15_11h43.55.775,ratings,2022.1.1,MacIntel,29.41176471
1.27340824,1.661,-3.445692884,2.526,0,131,131,146,1,354_e46c3ec6fb00773f64f2bcd212385f253c389808fe724b7cf8611051_edges.jpg,2.018292,0.0,edges,vasb,2022-06-15_11h43.55.775,ratings,2022.1.1,MacIntel,29.41176471
-0.187265918,2.494,-3.595505618,4.781,0,132,132,476,1,748_e519892faa7c772a0afaf9eeff36cf0e411574027ab3d9aa4947a048_edges.jpg,-1.813112,3.307432,edges,vasb,2022-06-15_11h43.55.775,ratings,2022.1.1,MacIntel,29.41176471
0.024968789,2.86,-3.607990012,4.526,0,133,133,151,1,355_00a76f54934d36566dd0e7b091b8aa6a56d8e6b32d349aa578a10b45_bw.jpg,2.910052,0.3439152,blackwhite,vasb,2022-06-15_11h43.55.775,ratings,2022.1.1,MacIntel,29.41176471
-0.074906367,1.846,-3.645443196,2.658,0,134,134,152,1,355_00a76f54934d36566dd0e7b091b8aa6a56d8e6b32d349aa578a10b45_edges.jpg,2.910052,0.3439152,edges,vasb,2022-06-15_11h43.55.775,ratings,2022.1.1,MacIntel,29.41176471
2.696629213,1.614,0.224719101,5.862,0,135,135,564,1,1037_e2eb929a6de79a63ce6cfe5321fcb74a203b134e4094932d90b01d99_orig.jpg,2.651956,0.0,original,vasb,2022-06-15_11h43.55.775,ratings,2022.1.1,MacIntel,29.41176471
2.359550562,1.527,1.672908864,2.281,0,136,136,202,1,380_34772591c787182a37724027eac6948ebc9d4064f6a601d23b923b8e_circblurint.jpg,2.222224,-0.063492,circularblurringint,vasb,2022-06-15_11h43.55.775,ratings,2022.1.1,MacIntel,29.41176471
0.262172285,4.213,-0.087390762,6.378,0,137,137,437,1,694_f80f33613b268beffd6c044537cf3b44a84683d6e889bc37b8e9c34b_circblurext.jpg,-0.3785616,3.34728,circularblurringext,vasb,2022-06-15_11h43.55.775,ratings,2022.1.1,MacIntel,29.41176471
-1.598002497,3.748,-2.584269663,6.915,0,138,138,192,1,379_eeaa6d9bf5a4ef205dc48bc505cf3a7f24ea86e99af9b371e03602a7_orig.jpg,-0.3926308,2.88936,original,vasb,2022-06-15_11h43.55.775,ratings,2022.1.1,MacIntel,29.41176471
-3.270911361,1.661,1.535580524,2.593,0,139,139,270,1,434_ba36d91204d7e578001f6a545d7501e65d209554def5a3c8b7583825_orig.jpg,-3.523808,1.428572,original,vasb,2022-06-15_11h43.55.775,ratings,2022.1.1,MacIntel,29.41176471
0.786516854,3.33,-2.596754057,6.149,0,140,140,8,1,28_6318543b74eeb646a1735477ebc023fdc9ac3849bc0db1957c272a26_edges.jpg,2.811244,-0.74584,edges,vasb,2022-06-15_11h43.55.775,ratings,2022.1.1,MacIntel,29.41176471
2.009987516,1.691,1.847690387,3.88,0,141,141,233,1,407_578d31d32e806706dde2563213f130b90e621abfed0e47ecabd85d27_circblurext.jpg,3.5873,-0.444444,circularblurringext,vasb,2022-06-15_11h43.55.775,ratings,2022.1.1,MacIntel,29.41176471
1.573033708,1.63,1.735330836,2.359,0,142,142,4,1,13_771f4fcf0a212d25d6a78565e7f34cc5ddd823e7afbdc77ef063326e_circblurint.jpg,2.190476,0.0,circularblurringint,vasb,2022-06-15_11h43.55.775,ratings,2022.1.1,MacIntel,29.41176471
2.234706617,3.315,0.936329588,8.081,0,143,143,280,1,440_9bf7e8609729bf888835168834da6c3ff30b75d0d4f36e2ee6918bcc_circblurint.jpg,-2.284164,2.710028,circularblurringint,vasb,2022-06-15_11h43.55.775,ratings,2022.1.1,MacIntel,29.41176471
2.671660424,1.927,2.771535581,2.725,0,144,144,483,1,759_95e1c46ed9a337414d5c8eada8fa8b9632e18751f5ce6ed587806e91_blur.jpg,2.126984,0.0,blurring,vasb,2022-06-15_11h43.55.775,ratings,2022.1.1,MacIntel,29.41176471
-0.873907615,4.027,-0.761548065,5.859,0,145,145,317,1,459_46e25de472bb056cb470716d30937415f7344bfc4354d6eb710d8c9f_circblurext.jpg,0.03174604,0.0,circularblurringext,vasb,2022-06-15_11h43.55.775,ratings,2022.1.1,MacIntel,29.41176471
2.509363296,57.662,1.797752809,58.894,0,146,146,39,1,82_43f4d5aec7c2e5bd495473f6708a0f2d47c9fe34e1fe9436646cb036_blur.jpg,2.022756,0.505688,blurring,vasb,2022-06-15_11h43.55.775,ratings,2022.1.1,MacIntel,29.41176471
0.811485643,3.847,-2.2721598,5.678,0,147,147,390,1,663_aaf52107fe3a86392530d88b34e86f9d2b6820714cad98d1e3c2cb67_orig.jpg,2.58766,0.0918696,original,vasb,2022-06-15_11h43.55.775,ratings,2022.1.1,MacIntel,29.41176471
2.421972534,2.093,0.936329588,3.147,0,148,148,567,1,1037_e2eb929a6de79a63ce6cfe5321fcb74a203b134e4094932d90b01d99_blur.jpg,2.651956,0.0,blurring,vasb,2022-06-15_11h43.55.775,ratings,2022.1.1,MacIntel,29.41176471
2.334581773,1.76,2.172284644,2.682,0,149,149,0,1,13_771f4fcf0a212d25d6a78565e7f34cc5ddd823e7afbdc77ef063326e_orig.jpg,2.190476,0.0,original,vasb,2022-06-15_11h43.55.775,ratings,2022.1.1,MacIntel,29.41176471
-3.308364544,1.713,-3.270911361,2.526,0,150,150,417,1,692_7d7eaf20e6de8956f0fca7500ace97a8599aa8b605a7d690cdb28724_blur.jpg,-2.063492,-1.26984,blurring,vasb,2022-06-15_11h43.55.775,ratings,2022.1.1,MacIntel,29.41176471
2.209737828,1.414,2.634207241,2.027,0,151,151,36,1,82_43f4d5aec7c2e5bd495473f6708a0f2d47c9fe34e1fe9436646cb036_orig.jpg,2.022756,0.505688,original,vasb,2022-06-15_11h43.55.775,ratings,2022.1.1,MacIntel,29.41176471
-0.099875156,1.78,3.245942572,2.879,0,152,152,403,1,686_6745b57686ad5d1bd6cf3e7ed5bc0243a154f8939e88e30321dfcfdb_bw.jpg,-1.523808,3.650792,blackwhite,vasb,2022-06-15_11h43.55.775,ratings,2022.1.1,MacIntel,29.41176471
0.624219725,2.289,-3.720349563,4.889,0,153,153,590,1,1228_557412d34d6a70b7c5d222e030aa485b351a4574e8ba1a3112d1d13d_edges.jpg,2.137444,0.703464,edges,vasb,2022-06-15_11h43.55.775,ratings,2022.1.1,MacIntel,29.41176471
-3.370786517,3.983,1.735330836,6.327,0,154,154,134,1,349_8809a67686d34844c915d7700e2ea72ad1c02ae232ae0d3cc0e458d4_edges.jpg,-3.619048,-0.2857144,edges,vasb,2022-06-15_11h43.55.775,ratings,2022.1.1,MacIntel,29.41176471
-0.287141074,2.026,-0.149812734,2.858,0,155,155,360,1,508_a7a9519cdc7aad6844030f4e6cd96cffd1b9c49b71e20ea52789bda2_orig.jpg,-3.000388,-1.29694,original,vasb,2022-06-15_11h43.55.775,ratings,2022.1.1,MacIntel,29.41176471
-1.198501873,1.55,-2.621722846,5.483,0,156,156,375,1,620_9674719009d75dcfeaed7f15932c43e1fd1af5e25d47b8aadd61efe2_blur.jpg,-0.561364,1.142084,blurring,vasb,2022-06-15_11h43.55.775,ratings,2022.1.1,MacIntel,29.41176471
1.061173533,1.692,0.24968789,3.926,0,157,157,482,1,759_95e1c46ed9a337414d5c8eada8fa8b9632e18751f5ce6ed587806e91_edges.jpg,2.126984,0.0,edges,vasb,2022-06-15_11h43.55.775,ratings,2022.1.1,MacIntel,29.41176471
0.287141074,1.792,-1.610486891,2.992,0,158,158,547,1,1010_06d15f44b979c086561137000ec070ba4cd479856f92840a7850b2bf_bw.jpg,0.189786,-0.189786,blackwhite,vasb,2022-06-15_11h43.55.775,ratings,2022.1.1,MacIntel,29.41176471
1.922596754,2.115,1.697877653,2.913,0,159,159,445,1,709_69c01dcde028a2a1a913f1a2a5026ae1748484f75c89217a040c6791_bw.jpg,1.432444,-0.01935732,blackwhite,vasb,2022-06-15_11h43.55.775,ratings,2022.1.1,MacIntel,29.41176471
-3.021223471,2.027,2.15980025,4.427,0,160,160,330,1,482_a1cd28915c5044c018195ab0fff10dcc95e385246b045a7cd4463ff7_orig.jpg,-3.361852,-1.555612,original,vasb,2022-06-15_11h43.55.775,ratings,2022.1.1,MacIntel,29.41176471
-0.449438202,1.482,3.345817728,3.515,0,161,161,406,1,686_6745b57686ad5d1bd6cf3e7ed5bc0243a154f8939e88e30321dfcfdb_circblurint.jpg,-1.523808,3.650792,circularblurringint,vasb,2022-06-15_11h43.55.775,ratings,2022.1.1,MacIntel,29.41176471
-0.124843945,4.496,-3.458177278,3.313,0,162,162,103,1,284_cdcbd54fc995081ac95c8b2c37a19cebb341f61a8eb268cee1623492_bw.jpg,-1.015872,2.095236,blackwhite,vasb,2022-06-15_11h43.55.775,ratings,2022.1.1,MacIntel,29.41176471
1.248439451,1.681,0.549313358,8.792,0,163,163,76,1,236_f645730e1eb06155418c9a571329cc7fa320654fcaaedf1048b5cc11_circblurint.jpg,2.253968,0.0,circularblurringint,vasb,2022-06-15_11h43.55.775,ratings,2022.1.1,MacIntel,29.41176471
-3.570536829,2.047,0.774032459,7.848,0,164,164,132,1,349_8809a67686d34844c915d7700e2ea72ad1c02ae232ae0d3cc0e458d4_orig.jpg,-3.619048,-0.2857144,original,vasb,2022-06-15_11h43.55.775,ratings,2022.1.1,MacIntel,29.41176471
-1.073657928,2.849,-3.420724095,3.927,0,165,165,196,1,379_eeaa6d9bf5a4ef205dc48bc505cf3a7f24ea86e99af9b371e03602a7_circblurint.jpg,-0.3926308,2.88936,circularblurringint,vasb,2022-06-15_11h43.55.775,ratings,2022.1.1,MacIntel,29.41176471
1.161048689,1.515,0.38701623,2.829,0,166,166,170,1,365_45a719cabbc9aa308c4fcb30d529489c6966ac4073874af84f665c61_edges.jpg,2.507936,-1.968252,edges,vasb,2022-06-15_11h43.55.775,ratings,2022.1.1,MacIntel,29.41176471
1.835205993,1.816,-0.162297129,18.98,0,167,167,286,1,440_dc6413e2b65369ee2587f4d85621742fe4ca87392d0a8ad2ea7d94e3_circblurint.jpg,-3.016216,1.69404,circularblurringint,vasb,2022-06-15_11h43.55.775,ratings,2022.1.1,MacIntel,29.41176471
-0.736579276,6.725,-2.65917603,2.681,0,168,168,558,1,1022_cf035e583d41a856836f8b0ae314ecbe79dffd9e40ef6a08cc26028f_orig.jpg,-0.2516452,3.05846,original,vasb,2022-06-15_11h43.55.775,ratings,2022.1.1,MacIntel,29.41176471
1.672908864,2.982,0.774032459,3.96,0,169,169,80,1,242_85283f6935a89812ab229dcad9ba184529c9242ac3106d768ecf3ab3_edges.jpg,2.14918,-0.2949852,edges,vasb,2022-06-15_11h43.55.775,ratings,2022.1.1,MacIntel,29.41176471
0.49937578,2.726,-3.121098627,4.893,0,170,170,540,1,1005_b980c0747d20935bc63cc27a9e05ce2ff5bae98f859872ec48edd7f5_orig.jpg,3.428572,-0.476192,original,vasb,2022-06-15_11h43.55.775,ratings,2022.1.1,MacIntel,29.41176471
-3.495630462,1.482,1.52309613,2.826,0,171,171,531,1,915_dc9fd40a3b5d64a180833a7bac86e7556c24f681f473fe255e41f936_blur.jpg,-3.09294,-0.918696,blurring,vasb,2022-06-15_11h43.55.775,ratings,2022.1.1,MacIntel,29.41176471
-1.111111111,2.159,-3.520599251,5.395,0,172,172,474,1,748_e519892faa7c772a0afaf9eeff36cf0e411574027ab3d9aa4947a048_orig.jpg,-1.813112,3.307432,original,vasb,2022-06-15_11h43.55.775,ratings,2022.1.1,MacIntel,29.41176471
-0.461922597,2.491,-2.197253433,4.147,0,173,173,423,1,692_e3e3bf88684fbbcdb9849a4147f9e2fcd39b0f083554a829aca4e9fa_blur.jpg,-0.44522,3.135888,blurring,vasb,2022-06-15_11h43.55.775,ratings,2022.1.1,MacIntel,29.41176471
-0.037453184,2.746,-3.108614232,4.18,0,174,174,514,1,858_2f6539ee36aba48c38dc716d4f7c3ae93367d6ddf23ab41745d4172c_circblurint.jpg,0.0623832,0.176752,circularblurringint,vasb,2022-06-15_11h43.55.775,ratings,2022.1.1,MacIntel,29.41176471
0.674157303,2.283,-0.374531835,7.258,0,175,175,299,1,449_9c1e990a3480e5b51430fe76b0188e69ba2468fd6a866b88b2d0dd75_circblurext.jpg,0.095238,0.03174604,circularblurringext,vasb,2022-06-15_11h43.55.775,ratings,2022.1.1,MacIntel,29.41176471
1.91011236,3.527,0.961298377,6.26,0,176,176,468,1,741_2b218fb015e3da83db73cacdb52e61e0c2534c1fe255bb1c5c74d47f_orig.jpg,3.140096,0.448584,original,vasb,2022-06-15_11h43.55.775,ratings,2022.1.1,MacIntel,29.41176471
3.508114856,2.149,3.508114856,3.261,0,177,177,115,1,332_4d584229bdae2e1782f77f0e953e528f13c3dfa79b4b94736c0310fa_bw.jpg,3.157348,0.483092,blackwhite,vasb,2022-06-15_11h43.55.775,ratings,2022.1.1,MacIntel,29.41176471
-0.099875156,2.224,-0.024968789,3.179,0,178,178,433,1,694_f80f33613b268beffd6c044537cf3b44a84683d6e889bc37b8e9c34b_bw.jpg,-0.3785616,3.34728,blackwhite,vasb,2022-06-15_11h43.55.775,ratings,2022.1.1,MacIntel,29.41176471
1.248439451,1.448,0.686641698,3.661,0,179,179,300,1,453_54f106fd1d4b65fa4aa347407127fc30d49f791e81aee3a0bbe44489_orig.jpg,2.222224,0.0,original,vasb,2022-06-15_11h43.55.775,ratings,2022.1.1,MacIntel,29.41176471
0.112359551,2.525,-0.012484395,3.413,0,180,180,579,1,1061_665178b9cb0bc869cc2e2b68def4838db04e66f9531098fb75875a09_blur.jpg,0.3492064,-0.3174604,blurring,vasb,2022-06-15_11h43.55.775,ratings,2022.1.1,MacIntel,29.41176471
-0.062421973,3.513,-0.049937578,4.247,0,181,181,7,1,28_6318543b74eeb646a1735477ebc023fdc9ac3849bc0db1957c272a26_bw.jpg,2.811244,-0.74584,blackwhite,vasb,2022-06-15_11h43.55.775,ratings,2022.1.1,MacIntel,29.41176471
-0.174781523,1.813,-2.471910112,3.564,0,182,182,209,1,381_5935a9f9796adce2f1539af6c75bcdc0c80d847a2ce9b77cf59b7672_circblurext.jpg,-1.327432,-0.442476,circularblurringext,vasb,2022-06-15_11h43.55.775,ratings,2022.1.1,MacIntel,29.41176471
-3.370786517,2.463,-1.560549313,4.695,0,183,183,241,1,411_adfd0d5782129756321ff671d0cfb712528504c66c863df11aabd1e7_bw.jpg,-3.392332,-1.369576,blackwhite,vasb,2022-06-15_11h43.55.775,ratings,2022.1.1,MacIntel,29.41176471
1.610486891,1.646,0.424469413,3.393,0,184,184,179,1,368_6507b94d7d0199f14efd3706db30c9c44b96085f84e9cc7792e3e0ae_circblurext.jpg,1.959544,0.400336,circularblurringext,vasb,2022-06-15_11h43.55.775,ratings,2022.1.1,MacIntel,29.41176471
3.595505618,1.681,3.583021223,2.526,0,185,185,120,1,347_27f0e47c2722605b950ccf9fa900f78271e4c3c874064ab5dacac160_orig.jpg,1.838948,0.3097172,original,vasb,2022-06-15_11h43.55.775,ratings,2022.1.1,MacIntel,29.41176471
-3.395755306,2.113,1.785268414,3.08,0,186,186,160,1,358_157f8ac929713531a15b1ecf115e7b659cb90e83d675251e368d165f_circblurint.jpg,-3.777776,-0.571428,circularblurringint,vasb,2022-06-15_11h43.55.775,ratings,2022.1.1,MacIntel,29.41176471
-0.062421973,2.459,-3.770287141,4.047,0,187,187,66,1,172_c641c6c56ca6b594b773084e1363c852abdb65f988d7ff802ee503f2_orig.jpg,0.379572,0.01725328,original,vasb,2022-06-15_11h43.55.775,ratings,2022.1.1,MacIntel,29.41176471
1.448189763,1.648,-0.474406991,4.113,0,188,188,469,1,741_2b218fb015e3da83db73cacdb52e61e0c2534c1fe255bb1c5c74d47f_bw.jpg,3.140096,0.448584,blackwhite,vasb,2022-06-15_11h43.55.775,ratings,2022.1.1,MacIntel,29.41176471
2.059925094,1.613,0.861423221,2.624,0,189,189,527,1,877_cab3efed0c9ff4552037df6c1ea4ea9713f915c94592a14dbf2799da_circblurext.jpg,3.174604,0.3174604,circularblurringext,vasb,2022-06-15_11h43.55.775,ratings,2022.1.1,MacIntel,29.41176471
2.446941323,1.781,0.13732834,3.88,0,190,190,269,1,431_ab5a1dbbe9292ac7f74e276cdabcd372e2c1f852ff34bf7cc6646ef8_circblurext.jpg,3.102584,0.354334,circularblurringext,vasb,2022-06-15_11h43.55.775,ratings,2022.1.1,MacIntel,29.41176471
-0.062421973,2.99,-0.037453184,4.061,0,191,191,140,1,353_44e285740cb41818482ac93fc5fbd72c18029444a1d7506c9fc053e7_edges.jpg,-3.232676,-0.87108,edges,vasb,2022-06-15_11h43.55.775,ratings,2022.1.1,MacIntel,29.41176471
-1.448189763,1.98,-2.771535581,3.427,0,192,192,363,1,508_a7a9519cdc7aad6844030f4e6cd96cffd1b9c49b71e20ea52789bda2_blur.jpg,-3.000388,-1.29694,blurring,vasb,2022-06-15_11h43.55.775,ratings,2022.1.1,MacIntel,29.41176471
2.284644195,2.093,0.037453184,3.28,0,193,193,447,1,709_69c01dcde028a2a1a913f1a2a5026ae1748484f75c89217a040c6791_blur.jpg,1.432444,-0.01935732,blurring,vasb,2022-06-15_11h43.55.775,ratings,2022.1.1,MacIntel,29.41176471
-2.509363296,2.548,-0.474406991,4.014,0,194,194,359,1,500_3b520c7f352afa1a9f8c07e56cc0588cdc04d25ff6e7b602b5e280cb_circblurext.jpg,-0.8328,3.11766,circularblurringext,vasb,2022-06-15_11h43.55.775,ratings,2022.1.1,MacIntel,29.41176471
-0.074906367,2.557,-3.520599251,4.391,0,195,195,90,1,258_d26019382777d2159a974a7654923e71598135ce2cd710cea1f92865_orig.jpg,3.497684,-0.61104,original,vasb,2022-06-15_11h43.55.775,ratings,2022.1.1,MacIntel,29.41176471
2.684144819,2.095,2.771535581,4.093,0,196,196,24,1,59_8568373b727f29d67ba6ce4c360dd918c8b08b13495fca56bdda5e82_orig.jpg,2.064896,0.505688,original,vasb,2022-06-15_11h43.55.775,ratings,2022.1.1,MacIntel,29.41176471
-3.04619226,1.664,1.210986267,4.182,0,197,197,534,1,986_a77edb21e78bc3a6aa7406517824596b3496ad6c657b6befb84cf370_orig.jpg,-3.906316,-0.60496,original,vasb,2022-06-15_11h43.55.775,ratings,2022.1.1,MacIntel,29.41176471
-3.79525593,5.027,-0.224719101,7.015,0,198,198,570,1,1039_d64da8480fc6e94dcdc513237d600570ae0b9fe48795ac6a8b2d29a7_orig.jpg,-2.507936,-1.142856,original,vasb,2022-06-15_11h43.55.775,ratings,2022.1.1,MacIntel,29.41176471
-3.04619226,3.826,-1.111111111,5.314,0,199,199,141,1,353_44e285740cb41818482ac93fc5fbd72c18029444a1d7506c9fc053e7_blur.jpg,-3.232676,-0.87108,blurring,vasb,2022-06-15_11h43.55.775,ratings,2022.1.1,MacIntel,29.41176471
1.210986267,1.993,0.574282147,3.794,0,200,200,50,1,112_b6a4ce721c2e42943d7d8b168751d74cd2f372b1cd4fed5a4404faec_edges.jpg,2.107036,0.505688,edges,vasb,2022-06-15_11h43.55.775,ratings,2022.1.1,MacIntel,29.41176471
1.935081149,3106.241,1.560549313,3107.129,0,201,201,2,1,13_771f4fcf0a212d25d6a78565e7f34cc5ddd823e7afbdc77ef063326e_edges.jpg,2.190476,0.0,edges,vasb,2022-06-15_11h43.55.775,ratings,2022.1.1,MacIntel,29.41176471
-0.062421973,2.482,-3.657927591,4.181,0,202,202,205,1,381_5935a9f9796adce2f1539af6c75bcdc0c80d847a2ce9b77cf59b7672_bw.jpg,-1.327432,-0.442476,blackwhite,vasb,2022-06-15_11h43.55.775,ratings,2022.1.1,MacIntel,29.41176471
1.410736579,1.53,0.961298377,2.328,0,203,203,116,1,332_4d584229bdae2e1782f77f0e953e528f13c3dfa79b4b94736c0310fa_edges.jpg,3.157348,0.483092,edges,vasb,2022-06-15_11h43.55.775,ratings,2022.1.1,MacIntel,29.41176471
1.011235955,1.48,-1.573033708,2.318,0,204,204,380,1,640_0ddb4981a5f5842ed5b4f7ef941be53779189df5e718b1fc5475ad80_edges.jpg,2.571428,-1.873016,edges,vasb,2022-06-15_11h43.55.775,ratings,2022.1.1,MacIntel,29.41176471
0.049937578,1.949,-2.996254682,2.946,0,205,205,297,1,449_9c1e990a3480e5b51430fe76b0188e69ba2468fd6a866b88b2d0dd75_blur.jpg,0.095238,0.03174604,blurring,vasb,2022-06-15_11h43.55.775,ratings,2022.1.1,MacIntel,29.41176471
-2.509363296,1.665,-0.074906367,4.364,0,206,206,136,1,349_8809a67686d34844c915d7700e2ea72ad1c02ae232ae0d3cc0e458d4_circblurint.jpg,-3.619048,-0.2857144,circularblurringint,vasb,2022-06-15_11h43.55.775,ratings,2022.1.1,MacIntel,29.41176471
0.586766542,3.482,-3.920099875,4.883,0,207,207,551,1,1010_06d15f44b979c086561137000ec070ba4cd479856f92840a7850b2bf_circblurext.jpg,0.189786,-0.189786,circularblurringext,vasb,2022-06-15_11h43.55.775,ratings,2022.1.1,MacIntel,29.41176471
-0.262172285,2.08,-3.670411985,3.793,0,208,208,67,1,172_c641c6c56ca6b594b773084e1363c852abdb65f988d7ff802ee503f2_bw.jpg,0.379572,0.01725328,blackwhite,vasb,2022-06-15_11h43.55.775,ratings,2022.1.1,MacIntel,29.41176471
1.897627965,1.526,-0.799001248,3.292,0,209,209,83,1,242_85283f6935a89812ab229dcad9ba184529c9242ac3106d768ecf3ab3_circblurext.jpg,2.14918,-0.2949852,circularblurringext,vasb,2022-06-15_11h43.55.775,ratings,2022.1.1,MacIntel,29.41176471
1.922596754,1.613,0.536828964,2.525,0,210,210,409,1,687_e3b018945792a574962235c88c553b7c318c75eec2596478e8a7b877_bw.jpg,3.63918,-0.42586,blackwhite,vasb,2022-06-15_11h43.55.775,ratings,2022.1.1,MacIntel,29.41176471
0.24968789,3.23,-3.882646692,8.631,0,211,211,11,1,28_6318543b74eeb646a1735477ebc023fdc9ac3849bc0db1957c272a26_circblurext.jpg,2.811244,-0.74584,circularblurringext,vasb,2022-06-15_11h43.55.775,ratings,2022.1.1,MacIntel,29.41176471
2.79650437,2.794,2.15980025,3.692,0,212,212,13,1,39_2fafccaa4dc69045a05845f59c6b3cd2edcf7e0e0c108b24e553afe0_bw.jpg,2.022756,0.463548,blackwhite,vasb,2022-06-15_11h43.55.775,ratings,2022.1.1,MacIntel,29.41176471
-0.074906367,1.658,-3.607990012,3.826,0,213,213,591,1,1228_557412d34d6a70b7c5d222e030aa485b351a4574e8ba1a3112d1d13d_blur.jpg,2.137444,0.703464,blurring,vasb,2022-06-15_11h43.55.775,ratings,2022.1.1,MacIntel,29.41176471
-2.746566792,3.895,-2.933832709,4.861,0,214,214,344,1,494_5c6c3b85a2734a43c24bfe337d42ffcc82b7347227804d01c784cef4_edges.jpg,0.03871468,0.0,edges,vasb,2022-06-15_11h43.55.775,ratings,2022.1.1,MacIntel,29.41176471
-3.93258427,1.846,-3.757802747,2.846,0,215,215,127,1,349_18d92ef5c21ca70a3dd237aad251594e1688bbe01d8cff37b89c46b8_bw.jpg,-2.74874,-1.258228,blackwhite,vasb,2022-06-15_11h43.55.775,ratings,2022.1.1,MacIntel,29.41176471
1.598002497,9.583,1.310861423,10.629,0,216,216,408,1,687_e3b018945792a574962235c88c553b7c318c75eec2596478e8a7b877_orig.jpg,3.63918,-0.42586,original,vasb,2022-06-15_11h43.55.775,ratings,2022.1.1,MacIntel,29.41176471
-3.558052434,2.825,-2.996254682,3.48,0,217,217,88,1,243_beddb302dcb21071d88c8d2cab07002050d36b3001ef28f89389fa56_circblurint.jpg,-0.3450656,-0.2070392,circularblurringint,vasb,2022-06-15_11h43.55.775,ratings,2022.1.1,MacIntel,29.41176471
3.620474407,1.227,3.383270911,1.891,0,218,218,121,1,347_27f0e47c2722605b950ccf9fa900f78271e4c3c874064ab5dacac160_bw.jpg,1.838948,0.3097172,blackwhite,vasb,2022-06-15_11h43.55.775,ratings,2022.1.1,MacIntel,29.41176471
-3.183520599,1.827,2.759051186,2.891,0,219,219,385,1,646_577760d718dab44c6f04d77408c5644a120065ce07a9503957d0850a_bw.jpg,-2.690668,2.61324,blackwhite,vasb,2022-06-15_11h43.55.775,ratings,2022.1.1,MacIntel,29.41176471
1.061173533,2.649,-0.237203496,3.546,0,220,220,77,1,236_f645730e1eb06155418c9a571329cc7fa320654fcaaedf1048b5cc11_circblurext.jpg,2.253968,0.0,circularblurringext,vasb,2022-06-15_11h43.55.775,ratings,2022.1.1,MacIntel,29.41176471
-0.149812734,1.679,0.024968789,2.425,0,221,221,309,1,455_34a7d8167619d110206c369e3f7dce8a3f99db763a9d8e2b956501d3_blur.jpg,-2.526412,-0.3827896,blurring,vasb,2022-06-15_11h43.55.775,ratings,2022.1.1,MacIntel,29.41176471
0.811485643,6.346,-3.93258427,7.146,0,222,222,218,1,396_208259ea431d47bb7f3946213eb099834eb119756ce304ad473d4d9f_edges.jpg,2.857144,-0.3809524,edges,vasb,2022-06-15_11h43.55.775,ratings,2022.1.1,MacIntel,29.41176471
-3.645443196,1.393,-0.424469413,2.726,0,223,223,247,1,414_0187bdf7007109b487865b6a9d388997a6817acf052a6a7cdd5b39d9_bw.jpg,-2.786708,-1.133056,blackwhite,vasb,2022-06-15_11h43.55.775,ratings,2022.1.1,MacIntel,29.41176471
-3.520599251,1.959,-3.470661673,2.625,0,224,224,86,1,243_beddb302dcb21071d88c8d2cab07002050d36b3001ef28f89389fa56_edges.jpg,-0.3450656,-0.2070392,edges,vasb,2022-06-15_11h43.55.775,ratings,2022.1.1,MacIntel,29.41176471
0.63670412,1.459,-3.495630462,2.583,0,225,225,393,1,663_aaf52107fe3a86392530d88b34e86f9d2b6820714cad98d1e3c2cb67_blur.jpg,2.58766,0.0918696,blurring,vasb,2022-06-15_11h43.55.775,ratings,2022.1.1,MacIntel,29.41176471
-2.808988764,1.783,-0.761548065,2.515,0,226,226,574,1,1039_d64da8480fc6e94dcdc513237d600570ae0b9fe48795ac6a8b2d29a7_circblurint.jpg,-2.507936,-1.142856,circularblurringint,vasb,2022-06-15_11h43.55.775,ratings,2022.1.1,MacIntel,29.41176471
3.196004994,1.216,3.220973783,2.225,0,227,227,122,1,347_27f0e47c2722605b950ccf9fa900f78271e4c3c874064ab5dacac160_edges.jpg,1.838948,0.3097172,edges,vasb,2022-06-15_11h43.55.775,ratings,2022.1.1,MacIntel,29.41176471
-0.861423221,2.293,-3.645443196,3.08,0,228,228,560,1,1022_cf035e583d41a856836f8b0ae314ecbe79dffd9e40ef6a08cc26028f_edges.jpg,-0.2516452,3.05846,edges,vasb,2022-06-15_11h43.55.775,ratings,2022.1.1,MacIntel,29.41176471
0.074906367,2.581,-3.270911361,3.628,0,229,229,222,1,403_57ac47f43882fc031a6067b1a388c0b2cbe8708dcbd2ff1019932eff_orig.jpg,-3.333332,-1.396824,original,vasb,2022-06-15_11h43.55.775,ratings,2022.1.1,MacIntel,29.41176471
1.697877653,1.848,-1.997503121,3.927,0,230,230,324,1,468_8b69b13120daebadd8a4a3166e1419f2404395cba231307a4efa9fde_orig.jpg,2.031744,0.2539684,original,vasb,2022-06-15_11h43.55.775,ratings,2022.1.1,MacIntel,29.41176471
-3.196004994,2.593,0.711610487,9.158,0,231,231,275,1,434_ba36d91204d7e578001f6a545d7501e65d209554def5a3c8b7583825_circblurext.jpg,-3.523808,1.428572,circularblurringext,vasb,2022-06-15_11h43.55.775,ratings,2022.1.1,MacIntel,29.41176471
1.985018727,3.283,2.009987516,4.06,0,232,232,1,1,13_771f4fcf0a212d25d6a78565e7f34cc5ddd823e7afbdc77ef063326e_bw.jpg,2.190476,0.0,blackwhite,vasb,2022-06-15_11h43.55.775,ratings,2022.1.1,MacIntel,29.41176471
-3.782771536,1.682,-3.970037453,2.847,0,233,233,319,1,460_e06b3af7ff2f2bfb5f9b6e3d5dc25b9aaa40b84823fac8fd934621bd_bw.jpg,-3.430992,-1.607468,blackwhite,vasb,2022-06-15_11h43.55.775,ratings,2022.1.1,MacIntel,29.41176471
3.558052434,1.348,2.297128589,2.414,0,234,234,41,1,82_43f4d5aec7c2e5bd495473f6708a0f2d47c9fe34e1fe9436646cb036_circblurext.jpg,2.022756,0.505688,circularblurringext,vasb,2022-06-15_11h43.55.775,ratings,2022.1.1,MacIntel,29.41176471
2.684144819,1.725,0.774032459,2.961,0,235,235,568,1,1037_e2eb929a6de79a63ce6cfe5321fcb74a203b134e4094932d90b01d99_circblurint.jpg,2.651956,0.0,circularblurringint,vasb,2022-06-15_11h43.55.775,ratings,2022.1.1,MacIntel,29.41176471
-0.062421973,2.145,-1.822721598,5.392,0,236,236,376,1,620_9674719009d75dcfeaed7f15932c43e1fd1af5e25d47b8aadd61efe2_circblurint.jpg,-0.561364,1.142084,circularblurringint,vasb,2022-06-15_11h43.55.775,ratings,2022.1.1,MacIntel,29.41176471
-0.037453184,3.814,3.870162297,4.947,0,237,237,583,1,1225_59c67a821456f2cce3e5acf66d7f00076bd02caffc984c1eb0df794e_bw.jpg,-0.444444,3.809524,blackwhite,vasb,2022-06-15_11h43.55.775,ratings,2022.1.1,MacIntel,29.41176471
0.649188514,19.548,-3.220973783,20.731,0,238,238,46,1,92_5d20d78a8e57e628c6930676473a4e0a485e715841efd6286c660020_circblurint.jpg,2.126984,0.0,circularblurringint,vasb,2022-06-15_11h43.55.775,ratings,2022.1.1,MacIntel,29.41176471
-3.770287141,1.391,2.122347066,3.362,0,239,239,539,1,986_a77edb21e78bc3a6aa7406517824596b3496ad6c657b6befb84cf370_circblurext.jpg,-3.906316,-0.60496,circularblurringext,vasb,2022-06-15_11h43.55.775,ratings,2022.1.1,MacIntel,29.41176471
-0.074906367,1.329,3.870162297,2.76,0,240,240,587,1,1225_59c67a821456f2cce3e5acf66d7f00076bd02caffc984c1eb0df794e_circblurext.jpg,-0.444444,3.809524,circularblurringext,vasb,2022-06-15_11h43.55.775,ratings,2022.1.1,MacIntel,29.41176471
-0.049937578,1.881,-3.68289638,2.879,0,241,241,342,1,494_5c6c3b85a2734a43c24bfe337d42ffcc82b7347227804d01c784cef4_orig.jpg,0.03871468,0.0,original,vasb,2022-06-15_11h43.55.775,ratings,2022.1.1,MacIntel,29.41176471
2.484394507,1.514,1.63545568,2.347,0,242,242,500,1,854_081a8409e4d6d10923b2dedcc16a3fca405fcd602e55a20d84cac69d_edges.jpg,3.088264,1.21538,edges,vasb,2022-06-15_11h43.55.775,ratings,2022.1.1,MacIntel,29.41176471
0.024968789,1.192,-0.074906367,2.058,0,243,243,581,1,1061_665178b9cb0bc869cc2e2b68def4838db04e66f9531098fb75875a09_circblurext.jpg,0.3492064,-0.3174604,circularblurringext,vasb,2022-06-15_11h43.55.775,ratings,2022.1.1,MacIntel,29.41176471
3.470661673,1.292,3.308364544,2.125,0,244,244,114,1,332_4d584229bdae2e1782f77f0e953e528f13c3dfa79b4b94736c0310fa_orig.jpg,3.157348,0.483092,original,vasb,2022-06-15_11h43.55.775,ratings,2022.1.1,MacIntel,29.41176471
-1.073657928,1.728,-3.882646692,2.481,0,245,245,235,1,410_9633c4ff6e8888fcfca59a60ca86e9606d3e0736500a254101bdf295_bw.jpg,-0.3677892,2.981028,blackwhite,vasb,2022-06-15_11h43.55.775,ratings,2022.1.1,MacIntel,29.41176471
1.847690387,1.297,0.037453184,2.247,0,246,246,230,1,407_578d31d32e806706dde2563213f130b90e621abfed0e47ecabd85d27_edges.jpg,3.5873,-0.444444,edges,vasb,2022-06-15_11h43.55.775,ratings,2022.1.1,MacIntel,29.41176471
1.860174782,1.649,-0.237203496,2.682,0,247,247,518,1,860_05c4e22518a30d3d2add458a8fc6488f87b9b02dd8e385ded939f025_edges.jpg,1.955092,0.3097172,edges,vasb,2022-06-15_11h43.55.775,ratings,2022.1.1,MacIntel,29.41176471
-1.760299625,2.06,1.148564295,3.491,0,248,248,358,1,500_3b520c7f352afa1a9f8c07e56cc0588cdc04d25ff6e7b602b5e280cb_circblurint.jpg,-0.8328,3.11766,circularblurringint,vasb,2022-06-15_11h43.55.775,ratings,2022.1.1,MacIntel,29.41176471
1.198501873,1.849,-0.961298377,2.682,0,249,249,411,1,687_e3b018945792a574962235c88c553b7c318c75eec2596478e8a7b877_blur.jpg,3.63918,-0.42586,blurring,vasb,2022-06-15_11h43.55.775,ratings,2022.1.1,MacIntel,29.41176471
-2.009987516,1.96,0.88639201,2.959,0,250,250,354,1,500_3b520c7f352afa1a9f8c07e56cc0588cdc04d25ff6e7b602b5e280cb_orig.jpg,-0.8328,3.11766,original,vasb,2022-06-15_11h43.55.775,ratings,2022.1.1,MacIntel,29.41176471
-0.087390762,1.157,-0.012484395,1.891,0,251,251,580,1,1061_665178b9cb0bc869cc2e2b68def4838db04e66f9531098fb75875a09_circblurint.jpg,0.3492064,-0.3174604,circularblurringint,vasb,2022-06-15_11h43.55.775,ratings,2022.1.1,MacIntel,29.41176471
1.598002497,3.248,-3.146067416,4.795,0,252,252,549,1,1010_06d15f44b979c086561137000ec070ba4cd479856f92840a7850b2bf_blur.jpg,0.189786,-0.189786,blurring,vasb,2022-06-15_11h43.55.775,ratings,2022.1.1,MacIntel,29.41176471
-3.233458177,2.294,0.287141074,3.48,0,253,253,332,1,482_a1cd28915c5044c018195ab0fff10dcc95e385246b045a7cd4463ff7_edges.jpg,-3.361852,-1.555612,edges,vasb,2022-06-15_11h43.55.775,ratings,2022.1.1,MacIntel,29.41176471
1.747815231,38.161,0.561797753,39.36,0,254,254,287,1,440_dc6413e2b65369ee2587f4d85621742fe4ca87392d0a8ad2ea7d94e3_circblurext.jpg,-3.016216,1.69404,circularblurringext,vasb,2022-06-15_11h43.55.775,ratings,2022.1.1,MacIntel,29.41176471
-0.63670412,1.698,-3.68289638,2.846,0,255,255,261,1,416_8a1f874e0057d67a4e6955865ba88b2d8ce2c8b4469589307687a723_blur.jpg,-1.753336,3.088264,blurring,vasb,2022-06-15_11h43.55.775,ratings,2022.1.1,MacIntel,29.41176471
2.072409488,1.769,0.74906367,2.526,0,256,256,203,1,380_34772591c787182a37724027eac6948ebc9d4064f6a601d23b923b8e_circblurext.jpg,2.222224,-0.063492,circularblurringext,vasb,2022-06-15_11h43.55.775,ratings,2022.1.1,MacIntel,29.41176471
-3.196004994,1.259,-0.586766542,2.083,0,257,257,249,1,414_0187bdf7007109b487865b6a9d388997a6817acf052a6a7cdd5b39d9_blur.jpg,-2.786708,-1.133056,blurring,vasb,2022-06-15_11h43.55.775,ratings,2022.1.1,MacIntel,29.41176471
-0.736579276,1.892,-3.757802747,2.948,0,258,258,204,1,381_5935a9f9796adce2f1539af6c75bcdc0c80d847a2ce9b77cf59b7672_orig.jpg,-1.327432,-0.442476,original,vasb,2022-06-15_11h43.55.775,ratings,2022.1.1,MacIntel,29.41176471
2.771535581,1.219,2.696629213,2.258,0,259,259,503,1,854_081a8409e4d6d10923b2dedcc16a3fca405fcd602e55a20d84cac69d_circblurext.jpg,3.088264,1.21538,circularblurringext,vasb,2022-06-15_11h43.55.775,ratings,2022.1.1,MacIntel,29.41176471
-0.149812734,1.525,-3.770287141,2.793,0,260,260,312,1,459_46e25de472bb056cb470716d30937415f7344bfc4354d6eb710d8c9f_orig.jpg,0.03174604,0.0,original,vasb,2022-06-15_11h43.55.775,ratings,2022.1.1,MacIntel,29.41176471
0.948813983,1.325,-2.596754057,4.062,0,261,261,155,1,355_00a76f54934d36566dd0e7b091b8aa6a56d8e6b32d349aa578a10b45_circblurext.jpg,2.910052,0.3439152,circularblurringext,vasb,2022-06-15_11h43.55.775,ratings,2022.1.1,MacIntel,29.41176471
1.460674157,2.881,-1.598002497,5.415,0,262,262,164,1,361_b5541309527dc3c2422f45a95ebb0ed32005e6fe10d0489a1ff1fbdc_edges.jpg,-3.987612,-0.2516452,edges,vasb,2022-06-15_11h43.55.775,ratings,2022.1.1,MacIntel,29.41176471
-0.087390762,1.314,-0.024968789,2.158,0,263,263,18,1,48_2cc936b2483ab2944c9158e163342b874ef6c1492fd8fca08c0e096e_orig.jpg,-1.264224,-0.779604,original,vasb,2022-06-15_11h43.55.775,ratings,2022.1.1,MacIntel,29.41176471
-0.162297129,1.38,-0.099875156,2.115,0,264,264,313,1,459_46e25de472bb056cb470716d30937415f7344bfc4354d6eb710d8c9f_bw.jpg,0.03174604,0.0,blackwhite,vasb,2022-06-15_11h43.55.775,ratings,2022.1.1,MacIntel,29.41176471
3.433208489,1.556,2.347066167,2.326,0,265,265,526,1,877_cab3efed0c9ff4552037df6c1ea4ea9713f915c94592a14dbf2799da_circblurint.jpg,3.174604,0.3174604,circularblurringint,vasb,2022-06-15_11h43.55.775,ratings,2022.1.1,MacIntel,29.41176471
-3.720349563,1.716,-0.574282147,2.514,0,266,266,244,1,411_adfd0d5782129756321ff671d0cfb712528504c66c863df11aabd1e7_circblurint.jpg,-3.392332,-1.369576,circularblurringint,vasb,2022-06-15_11h43.55.775,ratings,2022.1.1,MacIntel,29.41176471
1.335830212,6.216,-2.759051186,7.028,0,267,267,98,1,267_792043debad81ce271cec5b3c3bd9d264efc13f362bec9c7a3f72fe7_edges.jpg,1.980616,0.2107036,edges,vasb,2022-06-15_11h43.55.775,ratings,2022.1.1,MacIntel,29.41176471
1.91011236,2.216,-0.13732834,3.091,0,268,268,471,1,741_2b218fb015e3da83db73cacdb52e61e0c2534c1fe255bb1c5c74d47f_blur.jpg,3.140096,0.448584,blurring,vasb,2022-06-15_11h43.55.775,ratings,2022.1.1,MacIntel,29.41176471
0.911360799,1.36,-3.420724095,2.295,0,269,269,546,1,1010_06d15f44b979c086561137000ec070ba4cd479856f92840a7850b2bf_orig.jpg,0.189786,-0.189786,original,vasb,2022-06-15_11h43.55.775,ratings,2022.1.1,MacIntel,29.41176471
0.174781523,1.858,-3.820224719,2.948,0,270,270,347,1,494_5c6c3b85a2734a43c24bfe337d42ffcc82b7347227804d01c784cef4_circblurext.jpg,0.03871468,0.0,circularblurringext,vasb,2022-06-15_11h43.55.775,ratings,2022.1.1,MacIntel,29.41176471
1.885143571,1.682,-1.38576779,4.358,0,271,271,456,1,720_483c541c48959a597fcf44320941afaf8b7695105f90d65b5f6b30f2_orig.jpg,2.158732,-0.2539684,original,vasb,2022-06-15_11h43.55.775,ratings,2022.1.1,MacIntel,29.41176471
0.786516854,2.114,-3.146067416,3.017,0,272,272,291,1,442_7449d79dae5d652af9b2429872cabdef938646ba024db2f431b3b28d_blur.jpg,1.619048,0.126984,blurring,vasb,2022-06-15_11h43.55.775,ratings,2022.1.1,MacIntel,29.41176471
2.534332085,1.562,0.674157303,3.179,0,273,273,519,1,860_05c4e22518a30d3d2add458a8fc6488f87b9b02dd8e385ded939f025_blur.jpg,1.955092,0.3097172,blurring,vasb,2022-06-15_11h43.55.775,ratings,2022.1.1,MacIntel,29.41176471
2.446941323,2.182,2.309612984,3.649,0,274,274,279,1,440_9bf7e8609729bf888835168834da6c3ff30b75d0d4f36e2ee6918bcc_blur.jpg,-2.284164,2.710028,blurring,vasb,2022-06-15_11h43.55.775,ratings,2022.1.1,MacIntel,29.41176471
3.021223471,1.292,2.946317104,2.09,0,275,275,118,1,332_4d584229bdae2e1782f77f0e953e528f13c3dfa79b4b94736c0310fa_circblurint.jpg,3.157348,0.483092,circularblurringint,vasb,2022-06-15_11h43.55.775,ratings,2022.1.1,MacIntel,29.41176471
0.774032459,1.763,-3.745318352,2.993,0,276,276,153,1,355_00a76f54934d36566dd0e7b091b8aa6a56d8e6b32d349aa578a10b45_blur.jpg,2.910052,0.3439152,blurring,vasb,2022-06-15_11h43.55.775,ratings,2022.1.1,MacIntel,29.41176471
-0.724094881,1.581,-3.79525593,2.548,0,277,277,195,1,379_eeaa6d9bf5a4ef205dc48bc505cf3a7f24ea86e99af9b371e03602a7_blur.jpg,-0.3926308,2.88936,blurring,vasb,2022-06-15_11h43.55.775,ratings,2022.1.1,MacIntel,29.41176471
2.322097378,2.228,0.212234707,4.783,0,278,278,74,1,236_f645730e1eb06155418c9a571329cc7fa320654fcaaedf1048b5cc11_edges.jpg,2.253968,0.0,edges,vasb,2022-06-15_11h43.55.775,ratings,2022.1.1,MacIntel,29.41176471
-3.707865169,1.262,0.112359551,6.347,0,279,279,535,1,986_a77edb21e78bc3a6aa7406517824596b3496ad6c657b6befb84cf370_bw.jpg,-3.906316,-0.60496,blackwhite,vasb,2022-06-15_11h43.55.775,ratings,2022.1.1,MacIntel,29.41176471
3.657927591,1.364,3.171036205,2.393,0,280,280,498,1,854_081a8409e4d6d10923b2dedcc16a3fca405fcd602e55a20d84cac69d_orig.jpg,3.088264,1.21538,original,vasb,2022-06-15_11h43.55.775,ratings,2022.1.1,MacIntel,29.41176471
2.40948814,1.361,2.309612984,2.049,0,281,281,429,1,694_7a14b8ab7c564dcb0f628c4de7f6cb54e4c5f6601f774bf167641c37_blur.jpg,1.819588,0.116144,blurring,vasb,2022-06-15_11h43.55.775,ratings,2022.1.1,MacIntel,29.41176471
2.484394507,1.181,0.461922597,1.957,0,282,282,82,1,242_85283f6935a89812ab229dcad9ba184529c9242ac3106d768ecf3ab3_circblurint.jpg,2.14918,-0.2949852,circularblurringint,vasb,2022-06-15_11h43.55.775,ratings,2022.1.1,MacIntel,29.41176471
-0.024968789,1.858,-3.920099875,4.048,0,283,283,489,1,818_877aae033c31e3bbca4486321a5307f87cf53c576c546462d3daf194_blur.jpg,-1.277584,0.619436,blurring,vasb,2022-06-15_11h43.55.775,ratings,2022.1.1,MacIntel,29.41176471
3.245942572,1.279,1.485642946,2.024,0,284,284,480,1,759_95e1c46ed9a337414d5c8eada8fa8b9632e18751f5ce6ed587806e91_orig.jpg,2.126984,0.0,original,vasb,2022-06-15_11h43.55.775,ratings,2022.1.1,MacIntel,29.41176471
2.234706617,2.126,2.471910112,2.879,0,285,285,53,1,112_b6a4ce721c2e42943d7d8b168751d74cd2f372b1cd4fed5a4404faec_circblurext.jpg,2.107036,0.505688,circularblurringext,vasb,2022-06-15_11h43.55.775,ratings,2022.1.1,MacIntel,29.41176471
-0.049937578,2.016,-3.54556804,3.615,0,286,286,9,1,28_6318543b74eeb646a1735477ebc023fdc9ac3849bc0db1957c272a26_blur.jpg,2.811244,-0.74584,blurring,vasb,2022-06-15_11h43.55.775,ratings,2022.1.1,MacIntel,29.41176471
0.774032459,2.66,-3.395755306,5.083,0,287,287,391,1,663_aaf52107fe3a86392530d88b34e86f9d2b6820714cad98d1e3c2cb67_bw.jpg,2.58766,0.0918696,blackwhite,vasb,2022-06-15_11h43.55.775,ratings,2022.1.1,MacIntel,29.41176471
2.721598002,1.325,-0.474406991,2.959,0,288,288,32,1,60_ad52063167538de24f94d7dfd04808cb94cf8f426c40871d2f126505_edges.jpg,2.158732,0.0,edges,vasb,2022-06-15_11h43.55.775,ratings,2022.1.1,MacIntel,29.41176471
-3.595505618,2.392,-3.895131086,3.258,0,289,289,128,1,349_18d92ef5c21ca70a3dd237aad251594e1688bbe01d8cff37b89c46b8_edges.jpg,-2.74874,-1.258228,edges,vasb,2022-06-15_11h43.55.775,ratings,2022.1.1,MacIntel,29.41176471
3.058676654,1.428,3.008739076,2.313,0,290,290,37,1,82_43f4d5aec7c2e5bd495473f6708a0f2d47c9fe34e1fe9436646cb036_bw.jpg,2.022756,0.505688,blackwhite,vasb,2022-06-15_11h43.55.775,ratings,2022.1.1,MacIntel,29.41176471
2.334581773,1.357,2.459425718,2.146,0,291,291,183,1,369_98db62a1bdabfd1bc551180da6658005b461585cd21614633cf76470_blur.jpg,2.190476,-0.03174604,blurring,vasb,2022-06-15_11h43.55.775,ratings,2022.1.1,MacIntel,29.41176471
2.559300874,1.594,0.237203496,4.515,0,292,292,35,1,60_ad52063167538de24f94d7dfd04808cb94cf8f426c40871d2f126505_circblurext.jpg,2.158732,0.0,circularblurringext,vasb,2022-06-15_11h43.55.775,ratings,2022.1.1,MacIntel,29.41176471
-0.961298377,1.858,-3.720349563,2.781,0,293,293,236,1,410_9633c4ff6e8888fcfca59a60ca86e9606d3e0736500a254101bdf295_edges.jpg,-0.3677892,2.981028,edges,vasb,2022-06-15_11h43.55.775,ratings,2022.1.1,MacIntel,29.41176471
0.349563046,1.459,-3.470661673,2.249,0,294,294,220,1,396_208259ea431d47bb7f3946213eb099834eb119756ce304ad473d4d9f_circblurint.jpg,2.857144,-0.3809524,circularblurringint,vasb,2022-06-15_11h43.55.775,ratings,2022.1.1,MacIntel,29.41176471
-1.448189763,4.659,-3.146067416,6.229,0,295,295,129,1,349_18d92ef5c21ca70a3dd237aad251594e1688bbe01d8cff37b89c46b8_blur.jpg,-2.74874,-1.258228,blurring,vasb,2022-06-15_11h43.55.775,ratings,2022.1.1,MacIntel,29.41176471
0.012484395,1.746,3.920099875,2.677,0,296,296,407,1,686_6745b57686ad5d1bd6cf3e7ed5bc0243a154f8939e88e30321dfcfdb_circblurext.jpg,-1.523808,3.650792,circularblurringext,vasb,2022-06-15_11h43.55.775,ratings,2022.1.1,MacIntel,29.41176471
2.397003745,1.526,1.622971286,2.725,0,297,297,265,1,431_ab5a1dbbe9292ac7f74e276cdabcd372e2c1f852ff34bf7cc6646ef8_bw.jpg,3.102584,0.354334,blackwhite,vasb,2022-06-15_11h43.55.775,ratings,2022.1.1,MacIntel,29.41176471
2.184769039,1.591,0.324594257,2.645,0,298,298,171,1,365_45a719cabbc9aa308c4fcb30d529489c6966ac4073874af84f665c61_blur.jpg,2.507936,-1.968252,blurring,vasb,2022-06-15_11h43.55.775,ratings,2022.1.1,MacIntel,29.41176471
-0.049937578,1.247,-3.583021223,2.679,0,299,299,316,1,459_46e25de472bb056cb470716d30937415f7344bfc4354d6eb710d8c9f_circblurint.jpg,0.03174604,0.0,circularblurringint,vasb,2022-06-15_11h43.55.775,ratings,2022.1.1,MacIntel,29.41176471
-0.037453184,9.914,-3.982521848,8.15,0,300,300,438,1,700_59cb565f134f1afd066d7b6d936c6511b7cb76de0e9cbb5ce15124ad_orig.jpg,0.0,0.0,original,vasb,2022-06-15_11h43.55.775,ratings,2022.1.1,MacIntel,29.41176471
1.810237203,2.046,-0.961298377,2.994,0,301,301,33,1,60_ad52063167538de24f94d7dfd04808cb94cf8f426c40871d2f126505_blur.jpg,2.158732,0.0,blurring,vasb,2022-06-15_11h43.55.775,ratings,2022.1.1,MacIntel,29.41176471
2.509363296,1.259,1.797752809,1.991,0,302,302,29,1,59_8568373b727f29d67ba6ce4c360dd918c8b08b13495fca56bdda5e82_circblurext.jpg,2.064896,0.505688,circularblurringext,vasb,2022-06-15_11h43.55.775,ratings,2022.1.1,MacIntel,29.41176471
3.04619226,1.282,0.823970037,1.963,0,303,303,565,1,1037_e2eb929a6de79a63ce6cfe5321fcb74a203b134e4094932d90b01d99_bw.jpg,2.651956,0.0,blackwhite,vasb,2022-06-15_11h43.55.775,ratings,2022.1.1,MacIntel,29.41176471
0.037453184,1.425,-3.645443196,2.325,0,304,304,599,1,1239_cee00457f4cfb76a407b12fd5ad714d440a4614c1e5467ee16caf618_circblurext.jpg,-0.03174604,0.190476,circularblurringext,vasb,2022-06-15_11h43.55.775,ratings,2022.1.1,MacIntel,29.41176471
3.270911361,1.781,2.147315855,2.549,0,305,305,191,1,369_c99797771115d7627d4abe3415f814497288f91a7be1a04c17c776b9_circblurext.jpg,3.619824,-0.174216,circularblurringext,vasb,2022-06-15_11h43.55.775,ratings,2022.1.1,MacIntel,29.41176471
1.897627965,1.148,0.13732834,1.881,0,306,306,466,1,736_bb85db1bcda8eb34299aa5791ac65a0a7c343266eb2d6e6e328ec0e1_circblurint.jpg,3.650792,-0.03174604,circularblurringint,vasb,2022-06-15_11h43.55.775,ratings,2022.1.1,MacIntel,29.41176471
-0.074906367,1.347,3.895131086,2.294,0,307,307,586,1,1225_59c67a821456f2cce3e5acf66d7f00076bd02caffc984c1eb0df794e_circblurint.jpg,-0.444444,3.809524,circularblurringint,vasb,2022-06-15_11h43.55.775,ratings,2022.1.1,MacIntel,29.41176471
0.024968789,7.628,-3.470661673,4.947,0,308,308,260,1,416_8a1f874e0057d67a4e6955865ba88b2d8ce2c8b4469589307687a723_edges.jpg,-1.753336,3.088264,edges,vasb,2022-06-15_11h43.55.775,ratings,2022.1.1,MacIntel,29.41176471
-0.012484395,2.346,-3.533083645,3.345,0,309,309,598,1,1239_cee00457f4cfb76a407b12fd5ad714d440a4614c1e5467ee16caf618_circblurint.jpg,-0.03174604,0.190476,circularblurringint,vasb,2022-06-15_11h43.55.775,ratings,2022.1.1,MacIntel,29.41176471
0.674157303,1.725,-3.54556804,2.559,0,310,310,219,1,396_208259ea431d47bb7f3946213eb099834eb119756ce304ad473d4d9f_blur.jpg,2.857144,-0.3809524,blurring,vasb,2022-06-15_11h43.55.775,ratings,2022.1.1,MacIntel,29.41176471
1.473158552,1.259,-0.536828964,1.981,0,311,311,472,1,741_2b218fb015e3da83db73cacdb52e61e0c2534c1fe255bb1c5c74d47f_circblurint.jpg,3.140096,0.448584,circularblurringint,vasb,2022-06-15_11h43.55.775,ratings,2022.1.1,MacIntel,29.41176471
0.399500624,1.515,-2.671660424,3.181,0,312,312,290,1,442_7449d79dae5d652af9b2429872cabdef938646ba024db2f431b3b28d_edges.jpg,1.619048,0.126984,edges,vasb,2022-06-15_11h43.55.775,ratings,2022.1.1,MacIntel,29.41176471
-3.520599251,1.36,1.647940075,2.282,0,313,313,493,1,824_b1d91cc824ce0d3d383d3147da88d3d6dbaf6be918bab79e3ec8f501_bw.jpg,-3.645176,-1.432784,blackwhite,vasb,2022-06-15_11h43.55.775,ratings,2022.1.1,MacIntel,29.41176471
-3.782771536,1.66,2.372034956,3.892,0,314,314,400,1,683_a004ad18331da968da5debdd15e1447dd7748750af0bc6c57b844200_circblurint.jpg,-2.91956,2.466524,circularblurringint,vasb,2022-06-15_11h43.55.775,ratings,2022.1.1,MacIntel,29.41176471
-0.112359551,1.848,-2.896379526,3.948,0,315,315,589,1,1228_557412d34d6a70b7c5d222e030aa485b351a4574e8ba1a3112d1d13d_bw.jpg,2.137444,0.703464,blackwhite,vasb,2022-06-15_11h43.55.775,ratings,2022.1.1,MacIntel,29.41176471
0.012484395,1.926,-3.008739076,5.181,0,316,316,577,1,1061_665178b9cb0bc869cc2e2b68def4838db04e66f9531098fb75875a09_bw.jpg,0.3492064,-0.3174604,blackwhite,vasb,2022-06-15_11h43.55.775,ratings,2022.1.1,MacIntel,29.41176471
2.459425718,1.622,-1.797752809,2.745,0,317,317,516,1,860_05c4e22518a30d3d2add458a8fc6488f87b9b02dd8e385ded939f025_orig.jpg,1.955092,0.3097172,original,vasb,2022-06-15_11h43.55.775,ratings,2022.1.1,MacIntel,29.41176471
-1.161048689,1.659,-3.895131086,3.615,0,318,318,511,1,858_2f6539ee36aba48c38dc716d4f7c3ae93367d6ddf23ab41745d4172c_bw.jpg,0.0623832,0.176752,blackwhite,vasb,2022-06-15_11h43.55.775,ratings,2022.1.1,MacIntel,29.41176471
0.88639201,221.62,-3.083645443,222.595,0,319,319,544,1,1005_b980c0747d20935bc63cc27a9e05ce2ff5bae98f859872ec48edd7f5_circblurint.jpg,3.428572,-0.476192,circularblurringint,vasb,2022-06-15_11h43.55.775,ratings,2022.1.1,MacIntel,29.41176471
-3.433208489,1.479,-1.63545568,2.88,0,320,320,105,1,284_cdcbd54fc995081ac95c8b2c37a19cebb341f61a8eb268cee1623492_blur.jpg,-1.015872,2.095236,blurring,vasb,2022-06-15_11h43.55.775,ratings,2022.1.1,MacIntel,29.41176471
1.210986267,1.215,0.674157303,2.081,0,321,321,200,1,380_34772591c787182a37724027eac6948ebc9d4064f6a601d23b923b8e_edges.jpg,2.222224,-0.063492,edges,vasb,2022-06-15_11h43.55.775,ratings,2022.1.1,MacIntel,29.41176471
-1.348314607,2.148,-3.133583021,2.913,0,322,322,555,1,1014_a5c212ca979d482cf94c2db7697aba75620391a64b030ab7ad2bbecf_blur.jpg,-3.174604,-1.374372,blurring,vasb,2022-06-15_11h43.55.775,ratings,2022.1.1,MacIntel,29.41176471
1.672908864,1.092,1.148564295,1.681,0,323,323,277,1,440_9bf7e8609729bf888835168834da6c3ff30b75d0d4f36e2ee6918bcc_bw.jpg,-2.284164,2.710028,blackwhite,vasb,2022-06-15_11h43.55.775,ratings,2022.1.1,MacIntel,29.41176471
-0.087390762,1.013,-3.233458177,1.692,0,324,324,19,1,48_2cc936b2483ab2944c9158e163342b874ef6c1492fd8fca08c0e096e_bw.jpg,-1.264224,-0.779604,blackwhite,vasb,2022-06-15_11h43.55.775,ratings,2022.1.1,MacIntel,29.41176471
2.134831461,1.148,0.986267166,1.78,0,325,325,189,1,369_c99797771115d7627d4abe3415f814497288f91a7be1a04c17c776b9_blur.jpg,3.619824,-0.174216,blurring,vasb,2022-06-15_11h43.55.775,ratings,2022.1.1,MacIntel,29.41176471
1.086142322,1.293,-2.297128589,1.88,0,326,326,458,1,720_483c541c48959a597fcf44320941afaf8b7695105f90d65b5f6b30f2_edges.jpg,2.158732,-0.2539684,edges,vasb,2022-06-15_11h43.55.775,ratings,2022.1.1,MacIntel,29.41176471
-1.161048689,1.658,-1.248439451,2.891,0,327,327,477,1,748_e519892faa7c772a0afaf9eeff36cf0e411574027ab3d9aa4947a048_blur.jpg,-1.813112,3.307432,blurring,vasb,2022-06-15_11h43.55.775,ratings,2022.1.1,MacIntel,29.41176471
0.986267166,1.214,-1.797752809,1.826,0,328,328,455,1,716_2ab64478147184c4df720a52cf621875addc9007cb2967e4a9a88909_circblurext.jpg,2.428484,0.0,circularblurringext,vasb,2022-06-15_11h43.55.775,ratings,2022.1.1,MacIntel,29.41176471
-3.558052434,1.28,-3.520599251,1.859,0,329,329,322,1,460_e06b3af7ff2f2bfb5f9b6e3d5dc25b9aaa40b84823fac8fd934621bd_circblurint.jpg,-3.430992,-1.607468,circularblurringint,vasb,2022-06-15_11h43.55.775,ratings,2022.1.1,MacIntel,29.41176471
-0.836454432,1.515,-3.670411985,2.247,0,330,330,512,1,858_2f6539ee36aba48c38dc716d4f7c3ae93367d6ddf23ab41745d4172c_edges.jpg,0.0623832,0.176752,edges,vasb,2022-06-15_11h43.55.775,ratings,2022.1.1,MacIntel,29.41176471
-0.049937578,1.215,-3.220973783,1.96,0,331,331,208,1,381_5935a9f9796adce2f1539af6c75bcdc0c80d847a2ce9b77cf59b7672_circblurint.jpg,-1.327432,-0.442476,circularblurringint,vasb,2022-06-15_11h43.55.775,ratings,2022.1.1,MacIntel,29.41176471
1.148564295,1.327,-2.871410737,2.292,0,332,332,427,1,694_7a14b8ab7c564dcb0f628c4de7f6cb54e4c5f6601f774bf167641c37_bw.jpg,1.819588,0.116144,blackwhite,vasb,2022-06-15_11h43.55.775,ratings,2022.1.1,MacIntel,29.41176471
-3.370786517,1.564,-3.29588015,2.28,0,333,333,139,1,353_44e285740cb41818482ac93fc5fbd72c18029444a1d7506c9fc053e7_bw.jpg,-3.232676,-0.87108,blackwhite,vasb,2022-06-15_11h43.55.775,ratings,2022.1.1,MacIntel,29.41176471
0.586766542,1.827,0.337078652,6.96,0,334,334,64,1,156_08e8cf8f04630e9213e610580de73f51572d1d589878648700bae4dc_circblurint.jpg,2.222224,0.0,circularblurringint,vasb,2022-06-15_11h43.55.775,ratings,2022.1.1,MacIntel,29.41176471
0.549313358,1.16,-1.548064919,1.881,0,335,335,148,1,354_e46c3ec6fb00773f64f2bcd212385f253c389808fe724b7cf8611051_circblurint.jpg,2.018292,0.0,circularblurringint,vasb,2022-06-15_11h43.55.775,ratings,2022.1.1,MacIntel,29.41176471
-3.15855181,1.782,-1.148564295,4.146,0,336,336,387,1,646_577760d718dab44c6f04d77408c5644a120065ce07a9503957d0850a_blur.jpg,-2.690668,2.61324,blurring,vasb,2022-06-15_11h43.55.775,ratings,2022.1.1,MacIntel,29.41176471
2.02247191,5.492,0.149812734,3.881,0,337,337,349,1,498_305b74cdc4784d9d25e72724302e5402def70177ea31ae7e25fab66b_bw.jpg,3.04762,-0.444444,blackwhite,vasb,2022-06-15_11h43.55.775,ratings,2022.1.1,MacIntel,29.41176471
1.223470662,3.958,-2.983770287,6.181,0,338,338,99,1,267_792043debad81ce271cec5b3c3bd9d264efc13f362bec9c7a3f72fe7_blur.jpg,1.980616,0.2107036,blurring,vasb,2022-06-15_11h43.55.775,ratings,2022.1.1,MacIntel,29.41176471
2.996254682,1.448,1.985018727,2.158,0,339,339,190,1,369_c99797771115d7627d4abe3415f814497288f91a7be1a04c17c776b9_circblurint.jpg,3.619824,-0.174216,circularblurringint,vasb,2022-06-15_11h43.55.775,ratings,2022.1.1,MacIntel,29.41176471
2.034956305,1.312,1.011235955,4.147,0,340,340,75,1,236_f645730e1eb06155418c9a571329cc7fa320654fcaaedf1048b5cc11_blur.jpg,2.253968,0.0,blurring,vasb,2022-06-15_11h43.55.775,ratings,2022.1.1,MacIntel,29.41176471
1.198501873,4.462,0.149812734,5.447,0,341,341,504,1,855_66d893451dfd1e7615132071c6c8a82b02dc2b37781cd89400883b26_orig.jpg,2.69484,0.2143624,original,vasb,2022-06-15_11h43.55.775,ratings,2022.1.1,MacIntel,29.41176471
2.52184769,3.059,1.460674157,3.959,0,342,342,410,1,687_e3b018945792a574962235c88c553b7c318c75eec2596478e8a7b877_edges.jpg,3.63918,-0.42586,edges,vasb,2022-06-15_11h43.55.775,ratings,2022.1.1,MacIntel,29.41176471
-0.686641698,1.348,-3.620474407,2.159,0,343,343,234,1,410_9633c4ff6e8888fcfca59a60ca86e9606d3e0736500a254101bdf295_orig.jpg,-0.3677892,2.981028,original,vasb,2022-06-15_11h43.55.775,ratings,2022.1.1,MacIntel,29.41176471
1.52309613,3.231,0.324594257,4.048,0,344,344,108,1,293_3dfdfafc0c6a54b2da7453750ac281f7718c0b3337b0a74c4563d6bd_orig.jpg,-2.574524,2.632596,original,vasb,2022-06-15_11h43.55.775,ratings,2022.1.1,MacIntel,29.41176471
2.122347066,2.215,1.123595506,3.613,0,345,345,62,1,156_08e8cf8f04630e9213e610580de73f51572d1d589878648700bae4dc_edges.jpg,2.222224,0.0,edges,vasb,2022-06-15_11h43.55.775,ratings,2022.1.1,MacIntel,29.41176471
0.012484395,3.592,-3.470661673,4.447,0,346,346,92,1,258_d26019382777d2159a974a7654923e71598135ce2cd710cea1f92865_edges.jpg,3.497684,-0.61104,edges,vasb,2022-06-15_11h43.55.775,ratings,2022.1.1,MacIntel,29.41176471
1.335830212,2.364,0.611735331,4.049,0,347,347,326,1,468_8b69b13120daebadd8a4a3166e1419f2404395cba231307a4efa9fde_edges.jpg,2.031744,0.2539684,edges,vasb,2022-06-15_11h43.55.775,ratings,2022.1.1,MacIntel,29.41176471
-3.533083645,1.514,-3.520599251,2.894,0,348,348,142,1,353_44e285740cb41818482ac93fc5fbd72c18029444a1d7506c9fc053e7_circblurint.jpg,-3.232676,-0.87108,circularblurringint,vasb,2022-06-15_11h43.55.775,ratings,2022.1.1,MacIntel,29.41176471
2.559300874,1.68,1.323345818,2.663,0,349,349,182,1,369_98db62a1bdabfd1bc551180da6658005b461585cd21614633cf76470_edges.jpg,2.190476,-0.03174604,edges,vasb,2022-06-15_11h43.55.775,ratings,2022.1.1,MacIntel,29.41176471
0.024968789,1.948,-3.79525593,2.812,0,350,350,594,1,1239_cee00457f4cfb76a407b12fd5ad714d440a4614c1e5467ee16caf618_orig.jpg,-0.03174604,0.190476,original,vasb,2022-06-15_11h43.55.775,ratings,2022.1.1,MacIntel,29.41176471
-3.68289638,1.691,1.260923845,4.547,0,351,351,494,1,824_b1d91cc824ce0d3d383d3147da88d3d6dbaf6be918bab79e3ec8f501_edges.jpg,-3.645176,-1.432784,edges,vasb,2022-06-15_11h43.55.775,ratings,2022.1.1,MacIntel,29.41176471
2.234706617,1.347,0.998751561,2.125,0,352,352,181,1,369_98db62a1bdabfd1bc551180da6658005b461585cd21614633cf76470_bw.jpg,2.190476,-0.03174604,blackwhite,vasb,2022-06-15_11h43.55.775,ratings,2022.1.1,MacIntel,29.41176471
3.445692884,2.191,2.122347066,3.281,0,353,353,52,1,112_b6a4ce721c2e42943d7d8b168751d74cd2f372b1cd4fed5a4404faec_circblurint.jpg,2.107036,0.505688,circularblurringint,vasb,2022-06-15_11h43.55.775,ratings,2022.1.1,MacIntel,29.41176471
0.436953808,4.091,-3.583021223,5.125,0,354,354,294,1,449_9c1e990a3480e5b51430fe76b0188e69ba2468fd6a866b88b2d0dd75_orig.jpg,0.095238,0.03174604,original,vasb,2022-06-15_11h43.55.775,ratings,2022.1.1,MacIntel,29.41176471
-0.012484395,2.76,-3.882646692,3.713,0,355,355,102,1,284_cdcbd54fc995081ac95c8b2c37a19cebb341f61a8eb268cee1623492_orig.jpg,-1.015872,2.095236,original,vasb,2022-06-15_11h43.55.775,ratings,2022.1.1,MacIntel,29.41176471
2.734082397,1.081,2.122347066,2.048,0,356,356,187,1,369_c99797771115d7627d4abe3415f814497288f91a7be1a04c17c776b9_bw.jpg,3.619824,-0.174216,blackwhite,vasb,2022-06-15_11h43.55.775,ratings,2022.1.1,MacIntel,29.41176471
-0.062421973,3.715,-3.308364544,5.247,0,357,357,302,1,453_54f106fd1d4b65fa4aa347407127fc30d49f791e81aee3a0bbe44489_edges.jpg,2.222224,0.0,edges,vasb,2022-06-15_11h43.55.775,ratings,2022.1.1,MacIntel,29.41176471
0.811485643,1.681,0.062421973,4.18,0,358,358,383,1,640_0ddb4981a5f5842ed5b4f7ef941be53779189df5e718b1fc5475ad80_circblurext.jpg,2.571428,-1.873016,circularblurringext,vasb,2022-06-15_11h43.55.775,ratings,2022.1.1,MacIntel,29.41176471
-2.15980025,2.847,0.63670412,5.847,0,359,359,274,1,434_ba36d91204d7e578001f6a545d7501e65d209554def5a3c8b7583825_circblurint.jpg,-3.523808,1.428572,circularblurringint,vasb,2022-06-15_11h43.55.775,ratings,2022.1.1,MacIntel,29.41176471
0.024968789,7.225,-4,6.26,0,360,360,554,1,1014_a5c212ca979d482cf94c2db7697aba75620391a64b030ab7ad2bbecf_edges.jpg,-3.174604,-1.374372,edges,vasb,2022-06-15_11h43.55.775,ratings,2022.1.1,MacIntel,29.41176471
-1.997503121,2.915,0.961298377,3.925,0,361,361,398,1,683_a004ad18331da968da5debdd15e1447dd7748750af0bc6c57b844200_edges.jpg,-2.91956,2.466524,edges,vasb,2022-06-15_11h43.55.775,ratings,2022.1.1,MacIntel,29.41176471
0.936329588,2.56,0.187265918,3.381,0,362,362,112,1,293_3dfdfafc0c6a54b2da7453750ac281f7718c0b3337b0a74c4563d6bd_circblurint.jpg,-2.574524,2.632596,circularblurringint,vasb,2022-06-15_11h43.55.775,ratings,2022.1.1,MacIntel,29.41176471
0.024968789,2.697,-2.896379526,3.615,0,363,363,55,1,137_0e6a04243c0a42a5e2528a2d181255ca2a4b7bd6e7978c5c2059c69f_bw.jpg,-0.95238,2.095236,blackwhite,vasb,2022-06-15_11h43.55.775,ratings,2022.1.1,MacIntel,29.41176471
0.074906367,9.082,-2.808988764,10.216,0,364,364,488,1,818_877aae033c31e3bbca4486321a5307f87cf53c576c546462d3daf194_edges.jpg,-1.277584,0.619436,edges,vasb,2022-06-15_11h43.55.775,ratings,2022.1.1,MacIntel,29.41176471
0.362047441,1.446,-3.433208489,2.414,0,365,365,346,1,494_5c6c3b85a2734a43c24bfe337d42ffcc82b7347227804d01c784cef4_circblurint.jpg,0.03871468,0.0,circularblurringint,vasb,2022-06-15_11h43.55.775,ratings,2022.1.1,MacIntel,29.41176471
1.52309613,1.516,-2.15980025,2.614,0,366,366,292,1,442_7449d79dae5d652af9b2429872cabdef938646ba024db2f431b3b28d_circblurint.jpg,1.619048,0.126984,circularblurringint,vasb,2022-06-15_11h43.55.775,ratings,2022.1.1,MacIntel,29.41176471
0.998751561,1.614,-1.785268414,2.359,0,367,367,461,1,720_483c541c48959a597fcf44320941afaf8b7695105f90d65b5f6b30f2_circblurext.jpg,2.158732,-0.2539684,circularblurringext,vasb,2022-06-15_11h43.55.775,ratings,2022.1.1,MacIntel,29.41176471
3.420724095,1.649,2.996254682,3.548,0,368,368,49,1,112_b6a4ce721c2e42943d7d8b168751d74cd2f372b1cd4fed5a4404faec_bw.jpg,2.107036,0.505688,blackwhite,vasb,2022-06-15_11h43.55.775,ratings,2022.1.1,MacIntel,29.41176471
-0.873907615,1.413,-3.358302122,2.212,0,369,369,239,1,410_9633c4ff6e8888fcfca59a60ca86e9606d3e0736500a254101bdf295_circblurext.jpg,-0.3677892,2.981028,circularblurringext,vasb,2022-06-15_11h43.55.775,ratings,2022.1.1,MacIntel,29.41176471
-0.923845194,2.316,-3.645443196,2.95,0,370,370,95,1,258_d26019382777d2159a974a7654923e71598135ce2cd710cea1f92865_circblurext.jpg,3.497684,-0.61104,circularblurringext,vasb,2022-06-15_11h43.55.775,ratings,2022.1.1,MacIntel,29.41176471
-3.670411985,1.397,-3.470661673,2.08,0,371,371,318,1,460_e06b3af7ff2f2bfb5f9b6e3d5dc25b9aaa40b84823fac8fd934621bd_orig.jpg,-3.430992,-1.607468,original,vasb,2022-06-15_11h43.55.775,ratings,2022.1.1,MacIntel,29.41176471
3.320848939,1.549,3.083645443,2.248,0,372,372,446,1,709_69c01dcde028a2a1a913f1a2a5026ae1748484f75c89217a040c6791_edges.jpg,1.432444,-0.01935732,edges,vasb,2022-06-15_11h43.55.775,ratings,2022.1.1,MacIntel,29.41176471
-1.235955056,1.593,-3.720349563,3.125,0,373,373,258,1,416_8a1f874e0057d67a4e6955865ba88b2d8ce2c8b4469589307687a723_orig.jpg,-1.753336,3.088264,original,vasb,2022-06-15_11h43.55.775,ratings,2022.1.1,MacIntel,29.41176471
-3.495630462,1.925,1.448189763,3.092,0,374,374,159,1,358_157f8ac929713531a15b1ecf115e7b659cb90e83d675251e368d165f_blur.jpg,-3.777776,-0.571428,blurring,vasb,2022-06-15_11h43.55.775,ratings,2022.1.1,MacIntel,29.41176471
-3.945068664,1.182,2.534332085,1.927,0,375,375,250,1,414_0187bdf7007109b487865b6a9d388997a6817acf052a6a7cdd5b39d9_circblurint.jpg,-2.786708,-1.133056,circularblurringint,vasb,2022-06-15_11h43.55.775,ratings,2022.1.1,MacIntel,29.41176471
0.074906367,1.811,3.695380774,2.893,0,376,376,585,1,1225_59c67a821456f2cce3e5acf66d7f00076bd02caffc984c1eb0df794e_blur.jpg,-0.444444,3.809524,blurring,vasb,2022-06-15_11h43.55.775,ratings,2022.1.1,MacIntel,29.41176471
-3.995006242,1.26,-3.707865169,2.126,0,377,377,419,1,692_7d7eaf20e6de8956f0fca7500ace97a8599aa8b605a7d690cdb28724_circblurext.jpg,-2.063492,-1.26984,circularblurringext,vasb,2022-06-15_11h43.55.775,ratings,2022.1.1,MacIntel,29.41176471
-1.735330836,1.414,1.423220974,2.782,0,378,378,357,1,500_3b520c7f352afa1a9f8c07e56cc0588cdc04d25ff6e7b602b5e280cb_blur.jpg,-0.8328,3.11766,blurring,vasb,2022-06-15_11h43.55.775,ratings,2022.1.1,MacIntel,29.41176471
0.911360799,4.582,-3.657927591,3.114,0,379,379,45,1,92_5d20d78a8e57e628c6930676473a4e0a485e715841efd6286c660020_blur.jpg,2.126984,0.0,blurring,vasb,2022-06-15_11h43.55.775,ratings,2022.1.1,MacIntel,29.41176471
0.711610487,3.627,-3.033707865,5.149,0,380,380,283,1,440_dc6413e2b65369ee2587f4d85621742fe4ca87392d0a8ad2ea7d94e3_bw.jpg,-3.016216,1.69404,blackwhite,vasb,2022-06-15_11h43.55.775,ratings,2022.1.1,MacIntel,29.41176471
-0.012484395,2.249,-3.620474407,6.716,0,381,381,104,1,284_cdcbd54fc995081ac95c8b2c37a19cebb341f61a8eb268cee1623492_edges.jpg,-1.015872,2.095236,edges,vasb,2022-06-15_11h43.55.775,ratings,2022.1.1,MacIntel,29.41176471
-2.147315855,1.249,2.309612984,2.061,0,382,382,399,1,683_a004ad18331da968da5debdd15e1447dd7748750af0bc6c57b844200_blur.jpg,-2.91956,2.466524,blurring,vasb,2022-06-15_11h43.55.775,ratings,2022.1.1,MacIntel,29.41176471
-2.696629213,1.393,2.996254682,2.647,0,383,383,272,1,434_ba36d91204d7e578001f6a545d7501e65d209554def5a3c8b7583825_edges.jpg,-3.523808,1.428572,edges,vasb,2022-06-15_11h43.55.775,ratings,2022.1.1,MacIntel,29.41176471
-0.199750312,4.881,-3.458177278,5.893,0,384,384,593,1,1228_557412d34d6a70b7c5d222e030aa485b351a4574e8ba1a3112d1d13d_circblurext.jpg,2.137444,0.703464,circularblurringext,vasb,2022-06-15_11h43.55.775,ratings,2022.1.1,MacIntel,29.41176471
0.873907615,1.182,-2.709113608,2.197,0,385,385,147,1,354_e46c3ec6fb00773f64f2bcd212385f253c389808fe724b7cf8611051_blur.jpg,2.018292,0.0,blurring,vasb,2022-06-15_11h43.55.775,ratings,2022.1.1,MacIntel,29.41176471
-0.049937578,1.914,-0.087390762,4.391,0,386,386,432,1,694_f80f33613b268beffd6c044537cf3b44a84683d6e889bc37b8e9c34b_orig.jpg,-0.3785616,3.34728,original,vasb,2022-06-15_11h43.55.775,ratings,2022.1.1,MacIntel,29.41176471
-3.945068664,2.026,-0.287141074,3.19,0,387,387,245,1,411_adfd0d5782129756321ff671d0cfb712528504c66c863df11aabd1e7_circblurext.jpg,-3.392332,-1.369576,circularblurringext,vasb,2022-06-15_11h43.55.775,ratings,2022.1.1,MacIntel,29.41176471
0.312109863,1.381,0.274656679,3.512,0,388,388,111,1,293_3dfdfafc0c6a54b2da7453750ac281f7718c0b3337b0a74c4563d6bd_blur.jpg,-2.574524,2.632596,blurring,vasb,2022-06-15_11h43.55.775,ratings,2022.1.1,MacIntel,29.41176471
3.121098627,1.382,2.983770287,2.114,0,389,389,448,1,709_69c01dcde028a2a1a913f1a2a5026ae1748484f75c89217a040c6791_circblurint.jpg,1.432444,-0.01935732,circularblurringint,vasb,2022-06-15_11h43.55.775,ratings,2022.1.1,MacIntel,29.41176471
-3.757802747,1.812,-0.299625468,2.679,0,390,390,367,1,616_05a637f5281666f53d4e2ef69351485fc21d629b37ee2006b2076eb6_bw.jpg,-2.380952,-0.832364,blackwhite,vasb,2022-06-15_11h43.55.775,ratings,2022.1.1,MacIntel,29.41176471
2.334581773,1.725,2.896379526,3.08,0,391,391,232,1,407_578d31d32e806706dde2563213f130b90e621abfed0e47ecabd85d27_circblurint.jpg,3.5873,-0.444444,circularblurringint,vasb,2022-06-15_11h43.55.775,ratings,2022.1.1,MacIntel,29.41176471
-0.112359551,2.446,-3.595505618,3.614,0,392,392,556,1,1014_a5c212ca979d482cf94c2db7697aba75620391a64b030ab7ad2bbecf_circblurint.jpg,-3.174604,-1.374372,circularblurringint,vasb,2022-06-15_11h43.55.775,ratings,2022.1.1,MacIntel,29.41176471
-1.186017478,2.428,-3.982521848,3.295,0,393,393,320,1,460_e06b3af7ff2f2bfb5f9b6e3d5dc25b9aaa40b84823fac8fd934621bd_edges.jpg,-3.430992,-1.607468,edges,vasb,2022-06-15_11h43.55.775,ratings,2022.1.1,MacIntel,29.41176471
-1.810237203,3.893,-3.920099875,4.813,0,394,394,262,1,416_8a1f874e0057d67a4e6955865ba88b2d8ce2c8b4469589307687a723_circblurint.jpg,-1.753336,3.088264,circularblurringint,vasb,2022-06-15_11h43.55.775,ratings,2022.1.1,MacIntel,29.41176471
-1.1360799,1.227,-3.732833958,2.047,0,395,395,215,1,394_8e3a0cb945144d53bd1ace04b6256237ed9dcbbd9cb83f8a4886b0e6_circblurext.jpg,-2.593884,2.651956,circularblurringext,vasb,2022-06-15_11h43.55.775,ratings,2022.1.1,MacIntel,29.41176471
1.173533084,1.325,-3.508114856,2.193,0,396,396,460,1,720_483c541c48959a597fcf44320941afaf8b7695105f90d65b5f6b30f2_circblurint.jpg,2.158732,-0.2539684,circularblurringint,vasb,2022-06-15_11h43.55.775,ratings,2022.1.1,MacIntel,29.41176471
0.38701623,4.624,-1.173533084,2.926,0,397,397,578,1,1061_665178b9cb0bc869cc2e2b68def4838db04e66f9531098fb75875a09_edges.jpg,0.3492064,-0.3174604,edges,vasb,2022-06-15_11h43.55.775,ratings,2022.1.1,MacIntel,29.41176471
2.634207241,1.928,1.223470662,2.515,0,398,398,521,1,860_05c4e22518a30d3d2add458a8fc6488f87b9b02dd8e385ded939f025_circblurext.jpg,1.955092,0.3097172,circularblurringext,vasb,2022-06-15_11h43.55.775,ratings,2022.1.1,MacIntel,29.41176471
1.485642946,1.711,1.473158552,2.546,0,399,399,256,1,416_5eb54976bb41ce2a6d129ef985f792e716f010fb9b69b15f50f5d2db_circblurint.jpg,-2.58766,2.602972,circularblurringint,vasb,2022-06-15_11h43.55.775,ratings,2022.1.1,MacIntel,29.41176471
2.397003745,1.625,1.947565543,2.315,0,400,400,337,1,492_a1a4d288d3bc486c83c3b6a835c42891989f5ba781633932298a7676_bw.jpg,3.406892,-0.44522,blackwhite,vasb,2022-06-15_11h43.55.775,ratings,2022.1.1,MacIntel,29.41176471
2.084893883,1.159,3.370786517,1.981,0,401,401,281,1,440_9bf7e8609729bf888835168834da6c3ff30b75d0d4f36e2ee6918bcc_circblurext.jpg,-2.284164,2.710028,circularblurringext,vasb,2022-06-15_11h43.55.775,ratings,2022.1.1,MacIntel,29.41176471
1.073657928,1.149,0.436953808,2.392,0,402,402,545,1,1005_b980c0747d20935bc63cc27a9e05ce2ff5bae98f859872ec48edd7f5_circblurext.jpg,3.428572,-0.476192,circularblurringext,vasb,2022-06-15_11h43.55.775,ratings,2022.1.1,MacIntel,29.41176471
1.747815231,1.447,1.448189763,2.247,0,403,403,505,1,855_66d893451dfd1e7615132071c6c8a82b02dc2b37781cd89400883b26_bw.jpg,2.69484,0.2143624,blackwhite,vasb,2022-06-15_11h43.55.775,ratings,2022.1.1,MacIntel,29.41176471
0.012484395,1.348,-2.983770287,3.625,0,404,404,439,1,700_59cb565f134f1afd066d7b6d936c6511b7cb76de0e9cbb5ce15124ad_bw.jpg,0.0,0.0,blackwhite,vasb,2022-06-15_11h43.55.775,ratings,2022.1.1,MacIntel,29.41176471
-0.099875156,6.747,-2.971285893,7.614,0,405,405,212,1,394_8e3a0cb945144d53bd1ace04b6256237ed9dcbbd9cb83f8a4886b0e6_edges.jpg,-2.593884,2.651956,edges,vasb,2022-06-15_11h43.55.775,ratings,2022.1.1,MacIntel,29.41176471
-2.746566792,1.447,-2.2721598,2.181,0,406,406,321,1,460_e06b3af7ff2f2bfb5f9b6e3d5dc25b9aaa40b84823fac8fd934621bd_blur.jpg,-3.430992,-1.607468,blurring,vasb,2022-06-15_11h43.55.775,ratings,2022.1.1,MacIntel,29.41176471
0.649188514,1.18,-0.923845194,3.926,0,407,407,173,1,365_45a719cabbc9aa308c4fcb30d529489c6966ac4073874af84f665c61_circblurext.jpg,2.507936,-1.968252,circularblurringext,vasb,2022-06-15_11h43.55.775,ratings,2022.1.1,MacIntel,29.41176471
1.685393258,1.414,3.171036205,3.092,0,408,408,25,1,59_8568373b727f29d67ba6ce4c360dd918c8b08b13495fca56bdda5e82_bw.jpg,2.064896,0.505688,blackwhite,vasb,2022-06-15_11h43.55.775,ratings,2022.1.1,MacIntel,29.41176471
-1.086142322,1.294,-3.757802747,2.358,0,409,409,510,1,858_2f6539ee36aba48c38dc716d4f7c3ae93367d6ddf23ab41745d4172c_orig.jpg,0.0623832,0.176752,original,vasb,2022-06-15_11h43.55.775,ratings,2022.1.1,MacIntel,29.41176471
0.774032459,1.981,-1.285892634,2.847,0,410,410,350,1,498_305b74cdc4784d9d25e72724302e5402def70177ea31ae7e25fab66b_edges.jpg,3.04762,-0.444444,edges,vasb,2022-06-15_11h43.55.775,ratings,2022.1.1,MacIntel,29.41176471
-1.872659176,1.425,0.611735331,2.28,0,411,411,401,1,683_a004ad18331da968da5debdd15e1447dd7748750af0bc6c57b844200_circblurext.jpg,-2.91956,2.466524,circularblurringext,vasb,2022-06-15_11h43.55.775,ratings,2022.1.1,MacIntel,29.41176471
2.734082397,1.581,0.836454432,3.215,0,412,412,267,1,431_ab5a1dbbe9292ac7f74e276cdabcd372e2c1f852ff34bf7cc6646ef8_blur.jpg,3.102584,0.354334,blurring,vasb,2022-06-15_11h43.55.775,ratings,2022.1.1,MacIntel,29.41176471
-0.174781523,3.181,-2.209737828,5.794,0,413,413,424,1,692_e3e3bf88684fbbcdb9849a4147f9e2fcd39b0f083554a829aca4e9fa_circblurint.jpg,-0.44522,3.135888,circularblurringint,vasb,2022-06-15_11h43.55.775,ratings,2022.1.1,MacIntel,29.41176471
-3.54556804,1.391,-3.458177278,2.063,0,414,414,143,1,353_44e285740cb41818482ac93fc5fbd72c18029444a1d7506c9fc053e7_circblurext.jpg,-3.232676,-0.87108,circularblurringext,vasb,2022-06-15_11h43.55.775,ratings,2022.1.1,MacIntel,29.41176471
0.037453184,2.211,-3.133583021,3.624,0,415,415,206,1,381_5935a9f9796adce2f1539af6c75bcdc0c80d847a2ce9b77cf59b7672_edges.jpg,-1.327432,-0.442476,edges,vasb,2022-06-15_11h43.55.775,ratings,2022.1.1,MacIntel,29.41176471
0.861423221,1.696,-0.998751561,2.661,0,416,416,381,1,640_0ddb4981a5f5842ed5b4f7ef941be53779189df5e718b1fc5475ad80_blur.jpg,2.571428,-1.873016,blurring,vasb,2022-06-15_11h43.55.775,ratings,2022.1.1,MacIntel,29.41176471
1.460674157,1.326,-1.622971286,5.248,0,417,417,459,1,720_483c541c48959a597fcf44320941afaf8b7695105f90d65b5f6b30f2_blur.jpg,2.158732,-0.2539684,blurring,vasb,2022-06-15_11h43.55.775,ratings,2022.1.1,MacIntel,29.41176471
2.996254682,1.149,1.91011236,1.892,0,418,418,501,1,854_081a8409e4d6d10923b2dedcc16a3fca405fcd602e55a20d84cac69d_blur.jpg,3.088264,1.21538,blurring,vasb,2022-06-15_11h43.55.775,ratings,2022.1.1,MacIntel,29.41176471
-0.112359551,2.69,-2.571785268,4.357,0,419,419,284,1,440_dc6413e2b65369ee2587f4d85621742fe4ca87392d0a8ad2ea7d94e3_edges.jpg,-3.016216,1.69404,edges,vasb,2022-06-15_11h43.55.775,ratings,2022.1.1,MacIntel,29.41176471
0.38701623,5.558,-0.811485643,3.227,0,420,420,329,1,468_8b69b13120daebadd8a4a3166e1419f2404395cba231307a4efa9fde_circblurext.jpg,2.031744,0.2539684,circularblurringext,vasb,2022-06-15_11h43.55.775,ratings,2022.1.1,MacIntel,29.41176471
0.948813983,3.559,-2.52184769,6.448,0,421,421,452,1,716_2ab64478147184c4df720a52cf621875addc9007cb2967e4a9a88909_edges.jpg,2.428484,0.0,edges,vasb,2022-06-15_11h43.55.775,ratings,2022.1.1,MacIntel,29.41176471
2.996254682,1.782,2.684144819,4.628,0,422,422,15,1,39_2fafccaa4dc69045a05845f59c6b3cd2edcf7e0e0c108b24e553afe0_blur.jpg,2.022756,0.463548,blurring,vasb,2022-06-15_11h43.55.775,ratings,2022.1.1,MacIntel,29.41176471
-1.036204744,2.192,-2.684144819,3.059,0,423,423,562,1,1022_cf035e583d41a856836f8b0ae314ecbe79dffd9e40ef6a08cc26028f_circblurint.jpg,-0.2516452,3.05846,circularblurringint,vasb,2022-06-15_11h43.55.775,ratings,2022.1.1,MacIntel,29.41176471
0.574282147,1.913,3.720349563,2.794,0,424,424,584,1,1225_59c67a821456f2cce3e5acf66d7f00076bd02caffc984c1eb0df794e_edges.jpg,-0.444444,3.809524,edges,vasb,2022-06-15_11h43.55.775,ratings,2022.1.1,MacIntel,29.41176471
-3.632958801,4.36,-1.473158552,10.857,0,425,425,371,1,616_05a637f5281666f53d4e2ef69351485fc21d629b37ee2006b2076eb6_circblurext.jpg,-2.380952,-0.832364,circularblurringext,vasb,2022-06-15_11h43.55.775,ratings,2022.1.1,MacIntel,29.41176471
0.973782772,1.658,-2.02247191,4.181,0,426,426,450,1,716_2ab64478147184c4df720a52cf621875addc9007cb2967e4a9a88909_orig.jpg,2.428484,0.0,original,vasb,2022-06-15_11h43.55.775,ratings,2022.1.1,MacIntel,29.41176471
1.348314607,1.625,-1.985018727,3.083,0,427,427,110,1,293_3dfdfafc0c6a54b2da7453750ac281f7718c0b3337b0a74c4563d6bd_edges.jpg,-2.574524,2.632596,edges,vasb,2022-06-15_11h43.55.775,ratings,2022.1.1,MacIntel,29.41176471
-0.037453184,1.66,-3.845193508,2.662,0,428,428,106,1,284_cdcbd54fc995081ac95c8b2c37a19cebb341f61a8eb268cee1623492_circblurint.jpg,-1.015872,2.095236,circularblurringint,vasb,2022-06-15_11h43.55.775,ratings,2022.1.1,MacIntel,29.41176471
1.922596754,1.381,1.573033708,2.116,0,429,429,27,1,59_8568373b727f29d67ba6ce4c360dd918c8b08b13495fca56bdda5e82_blur.jpg,2.064896,0.505688,blurring,vasb,2022-06-15_11h43.55.775,ratings,2022.1.1,MacIntel,29.41176471
0.074906367,7.53,-0.062421973,9.526,0,430,430,158,1,358_157f8ac929713531a15b1ecf115e7b659cb90e83d675251e368d165f_edges.jpg,-3.777776,-0.571428,edges,vasb,2022-06-15_11h43.55.775,ratings,2022.1.1,MacIntel,29.41176471
-1.111111111,1.515,-1.722846442,7.947,0,431,431,561,1,1022_cf035e583d41a856836f8b0ae314ecbe79dffd9e40ef6a08cc26028f_blur.jpg,-0.2516452,3.05846,blurring,vasb,2022-06-15_11h43.55.775,ratings,2022.1.1,MacIntel,29.41176471
2.359550562,1.859,2.009987516,2.76,0,432,432,38,1,82_43f4d5aec7c2e5bd495473f6708a0f2d47c9fe34e1fe9436646cb036_edges.jpg,2.022756,0.505688,edges,vasb,2022-06-15_11h43.55.775,ratings,2022.1.1,MacIntel,29.41176471
0.861423221,1.76,-1.510611735,2.448,0,433,433,541,1,1005_b980c0747d20935bc63cc27a9e05ce2ff5bae98f859872ec48edd7f5_bw.jpg,3.428572,-0.476192,blackwhite,vasb,2022-06-15_11h43.55.775,ratings,2022.1.1,MacIntel,29.41176471
-0.911360799,1.416,-3.245942572,2.525,0,434,434,563,1,1022_cf035e583d41a856836f8b0ae314ecbe79dffd9e40ef6a08cc26028f_circblurext.jpg,-0.2516452,3.05846,circularblurringext,vasb,2022-06-15_11h43.55.775,ratings,2022.1.1,MacIntel,29.41176471
-0.012484395,3.982,-3.720349563,4.694,0,435,435,20,1,48_2cc936b2483ab2944c9158e163342b874ef6c1492fd8fca08c0e096e_edges.jpg,-1.264224,-0.779604,edges,vasb,2022-06-15_11h43.55.775,ratings,2022.1.1,MacIntel,29.41176471
2.821473159,2.18,2.584269663,3.08,0,436,436,444,1,709_69c01dcde028a2a1a913f1a2a5026ae1748484f75c89217a040c6791_orig.jpg,1.432444,-0.01935732,original,vasb,2022-06-15_11h43.55.775,ratings,2022.1.1,MacIntel,29.41176471
3.258426966,1.747,1.697877653,3.049,0,437,437,522,1,877_cab3efed0c9ff4552037df6c1ea4ea9713f915c94592a14dbf2799da_orig.jpg,3.174604,0.3174604,original,vasb,2022-06-15_11h43.55.775,ratings,2022.1.1,MacIntel,29.41176471
3.583021223,1.792,3.283395755,2.559,0,438,438,229,1,407_578d31d32e806706dde2563213f130b90e621abfed0e47ecabd85d27_bw.jpg,3.5873,-0.444444,blackwhite,vasb,2022-06-15_11h43.55.775,ratings,2022.1.1,MacIntel,29.41176471
-3.470661673,1.615,1.822721598,2.527,0,439,439,384,1,646_577760d718dab44c6f04d77408c5644a120065ce07a9503957d0850a_orig.jpg,-2.690668,2.61324,original,vasb,2022-06-15_11h43.55.775,ratings,2022.1.1,MacIntel,29.41176471
-0.062421973,1.959,-3.620474407,2.759,0,440,440,442,1,700_59cb565f134f1afd066d7b6d936c6511b7cb76de0e9cbb5ce15124ad_circblurint.jpg,0.0,0.0,circularblurringint,vasb,2022-06-15_11h43.55.775,ratings,2022.1.1,MacIntel,29.41176471
1.885143571,1.45,1.560549313,3.16,0,441,441,566,1,1037_e2eb929a6de79a63ce6cfe5321fcb74a203b134e4094932d90b01d99_edges.jpg,2.651956,0.0,edges,vasb,2022-06-15_11h43.55.775,ratings,2022.1.1,MacIntel,29.41176471
-3.882646692,1.714,1.27340824,5.626,0,442,442,537,1,986_a77edb21e78bc3a6aa7406517824596b3496ad6c657b6befb84cf370_blur.jpg,-3.906316,-0.60496,blurring,vasb,2022-06-15_11h43.55.775,ratings,2022.1.1,MacIntel,29.41176471
-0.074906367,1.246,-3.54556804,2.047,0,443,443,21,1,48_2cc936b2483ab2944c9158e163342b874ef6c1492fd8fca08c0e096e_blur.jpg,-1.264224,-0.779604,blurring,vasb,2022-06-15_11h43.55.775,ratings,2022.1.1,MacIntel,29.41176471
-3.995006242,1.447,0.174781523,2.315,0,444,444,389,1,646_577760d718dab44c6f04d77408c5644a120065ce07a9503957d0850a_circblurext.jpg,-2.690668,2.61324,circularblurringext,vasb,2022-06-15_11h43.55.775,ratings,2022.1.1,MacIntel,29.41176471
0.973782772,1.448,-3.657927591,2.448,0,445,445,145,1,354_e46c3ec6fb00773f64f2bcd212385f253c389808fe724b7cf8611051_bw.jpg,2.018292,0.0,blackwhite,vasb,2022-06-15_11h43.55.775,ratings,2022.1.1,MacIntel,29.41176471
3.345817728,1.359,3.395755306,2.148,0,446,446,119,1,332_4d584229bdae2e1782f77f0e953e528f13c3dfa79b4b94736c0310fa_circblurext.jpg,3.157348,0.483092,circularblurringext,vasb,2022-06-15_11h43.55.775,ratings,2022.1.1,MacIntel,29.41176471
0.262172285,1.915,-2.309612984,5.014,0,447,447,43,1,92_5d20d78a8e57e628c6930676473a4e0a485e715841efd6286c660020_bw.jpg,2.126984,0.0,blackwhite,vasb,2022-06-15_11h43.55.775,ratings,2022.1.1,MacIntel,29.41176471
1.960049938,3.583,0.948813983,5.349,0,448,448,382,1,640_0ddb4981a5f5842ed5b4f7ef941be53779189df5e718b1fc5475ad80_circblurint.jpg,2.571428,-1.873016,circularblurringint,vasb,2022-06-15_11h43.55.775,ratings,2022.1.1,MacIntel,29.41176471
