valence_slider.response,valence_slider.rt,arousal_slider.response,arousal_slider.rt,trials.thisRepN,trials.thisTrialN,trials.thisN,trials.thisIndex,trials.ran,img_name,vm,am,manipulation,participant,date,expName,psychopyVersion,OS,frameRate
-2.90886392,37.074,0.024968789,10.631,0,0,0,138,1,353_44e285740cb41818482ac93fc5fbd72c18029444a1d7506c9fc053e7_orig.jpg,-3.232676,-0.87108,original,VIWI30081993,2022-06-15_19h33.51,ratings,2022.1.1,MacIntel,58.82352941
1.885143571,2.695,0.973782772,4.419,0,1,1,499,1,854_081a8409e4d6d10923b2dedcc16a3fca405fcd602e55a20d84cac69d_bw.jpg,3.088264,1.21538,blackwhite,VIWI30081993,2022-06-15_19h33.51,ratings,2022.1.1,MacIntel,58.82352941
-0.998751561,3.666,1.073657928,6.369,0,2,2,559,1,1022_cf035e583d41a856836f8b0ae314ecbe79dffd9e40ef6a08cc26028f_bw.jpg,-0.2516452,3.05846,blackwhite,VIWI30081993,2022-06-15_19h33.51,ratings,2022.1.1,MacIntel,58.82352941
-0.986267166,8.815,-3.008739076,25.761,0,3,3,316,1,459_46e25de472bb056cb470716d30937415f7344bfc4354d6eb710d8c9f_circblurint.jpg,0.03174604,0.0,circularblurringint,VIWI30081993,2022-06-15_19h33.51,ratings,2022.1.1,MacIntel,58.82352941
2.933832709,3.19,1.997503121,5.356,0,4,4,114,1,332_4d584229bdae2e1782f77f0e953e528f13c3dfa79b4b94736c0310fa_orig.jpg,3.157348,0.483092,original,VIWI30081993,2022-06-15_19h33.51,ratings,2022.1.1,MacIntel,58.82352941
0.012484395,2.913,-0.087390762,4.405,0,5,5,594,1,1239_cee00457f4cfb76a407b12fd5ad714d440a4614c1e5467ee16caf618_orig.jpg,-0.03174604,0.190476,original,VIWI30081993,2022-06-15_19h33.51,ratings,2022.1.1,MacIntel,58.82352941
-1.011235955,2.652,-2.134831461,5.388,0,6,6,194,1,379_eeaa6d9bf5a4ef205dc48bc505cf3a7f24ea86e99af9b371e03602a7_edges.jpg,-0.3926308,2.88936,edges,VIWI30081993,2022-06-15_19h33.51,ratings,2022.1.1,MacIntel,58.82352941
3.970037453,3.254,3.995006242,7.351,0,7,7,391,1,663_aaf52107fe3a86392530d88b34e86f9d2b6820714cad98d1e3c2cb67_bw.jpg,2.58766,0.0918696,blackwhite,VIWI30081993,2022-06-15_19h33.51,ratings,2022.1.1,MacIntel,58.82352941
-2.047440699,3.219,1.048689139,5.408,0,8,8,577,1,1061_665178b9cb0bc869cc2e2b68def4838db04e66f9531098fb75875a09_bw.jpg,0.3492064,-0.3174604,blackwhite,VIWI30081993,2022-06-15_19h33.51,ratings,2022.1.1,MacIntel,58.82352941
-0.024968789,3.088,1.048689139,4.97,0,9,9,424,1,692_e3e3bf88684fbbcdb9849a4147f9e2fcd39b0f083554a829aca4e9fa_circblurint.jpg,-0.44522,3.135888,circularblurringint,VIWI30081993,2022-06-15_19h33.51,ratings,2022.1.1,MacIntel,58.82352941
-2.971285893,3.189,2.009987516,5.308,0,10,10,330,1,482_a1cd28915c5044c018195ab0fff10dcc95e385246b045a7cd4463ff7_orig.jpg,-3.361852,-1.555612,original,VIWI30081993,2022-06-15_19h33.51,ratings,2022.1.1,MacIntel,58.82352941
-0.024968789,1.592,0.012484395,2.431,0,11,11,599,1,1239_cee00457f4cfb76a407b12fd5ad714d440a4614c1e5467ee16caf618_circblurext.jpg,-0.03174604,0.190476,circularblurringext,VIWI30081993,2022-06-15_19h33.51,ratings,2022.1.1,MacIntel,58.82352941
-0.24968789,1.728,1.02372035,3.383,0,12,12,70,1,172_c641c6c56ca6b594b773084e1363c852abdb65f988d7ff802ee503f2_circblurint.jpg,0.379572,0.01725328,circularblurringint,VIWI30081993,2022-06-15_19h33.51,ratings,2022.1.1,MacIntel,58.82352941
-2.933832709,2.029,1.972534332,3.715,0,13,13,531,1,915_dc9fd40a3b5d64a180833a7bac86e7556c24f681f473fe255e41f936_blur.jpg,-3.09294,-0.918696,blurring,VIWI30081993,2022-06-15_19h33.51,ratings,2022.1.1,MacIntel,58.82352941
3.308364544,2.612,2.134831461,3.866,0,14,14,200,1,380_34772591c787182a37724027eac6948ebc9d4064f6a601d23b923b8e_edges.jpg,2.222224,-0.063492,edges,VIWI30081993,2022-06-15_19h33.51,ratings,2022.1.1,MacIntel,58.82352941
-1.011235955,3.186,0.074906367,4.035,0,15,15,215,1,394_8e3a0cb945144d53bd1ace04b6256237ed9dcbbd9cb83f8a4886b0e6_circblurext.jpg,-2.593884,2.651956,circularblurringext,VIWI30081993,2022-06-15_19h33.51,ratings,2022.1.1,MacIntel,58.82352941
-0.087390762,1.493,-0.049937578,2.244,0,16,16,443,1,700_59cb565f134f1afd066d7b6d936c6511b7cb76de0e9cbb5ce15124ad_circblurext.jpg,0.0,0.0,circularblurringext,VIWI30081993,2022-06-15_19h33.51,ratings,2022.1.1,MacIntel,58.82352941
1.91011236,2.08,0.948813983,3.282,0,17,17,286,1,440_dc6413e2b65369ee2587f4d85621742fe4ca87392d0a8ad2ea7d94e3_circblurint.jpg,-3.016216,1.69404,circularblurringint,VIWI30081993,2022-06-15_19h33.51,ratings,2022.1.1,MacIntel,58.82352941
1.922596754,1.293,2.02247191,2.23,0,18,18,202,1,380_34772591c787182a37724027eac6948ebc9d4064f6a601d23b923b8e_circblurint.jpg,2.222224,-0.063492,circularblurringint,VIWI30081993,2022-06-15_19h33.51,ratings,2022.1.1,MacIntel,58.82352941
2.02247191,1.377,1.985018727,2.236,0,19,19,498,1,854_081a8409e4d6d10923b2dedcc16a3fca405fcd602e55a20d84cac69d_orig.jpg,3.088264,1.21538,original,VIWI30081993,2022-06-15_19h33.51,ratings,2022.1.1,MacIntel,58.82352941
0.948813983,1.476,0.936329588,2.253,0,20,20,31,1,60_ad52063167538de24f94d7dfd04808cb94cf8f426c40871d2f126505_bw.jpg,2.158732,0.0,blackwhite,VIWI30081993,2022-06-15_19h33.51,ratings,2022.1.1,MacIntel,58.82352941
2.79650437,1.78,2.471910112,2.869,0,21,21,49,1,112_b6a4ce721c2e42943d7d8b168751d74cd2f372b1cd4fed5a4404faec_bw.jpg,2.107036,0.505688,blackwhite,VIWI30081993,2022-06-15_19h33.51,ratings,2022.1.1,MacIntel,58.82352941
-0.062421973,2.163,-0.099875156,2.982,0,22,22,596,1,1239_cee00457f4cfb76a407b12fd5ad714d440a4614c1e5467ee16caf618_edges.jpg,-0.03174604,0.190476,edges,VIWI30081993,2022-06-15_19h33.51,ratings,2022.1.1,MacIntel,58.82352941
-2.134831461,6.859,0.861423221,10.369,0,23,23,562,1,1022_cf035e583d41a856836f8b0ae314ecbe79dffd9e40ef6a08cc26028f_circblurint.jpg,-0.2516452,3.05846,circularblurringint,VIWI30081993,2022-06-15_19h33.51,ratings,2022.1.1,MacIntel,58.82352941
1.036204744,1.544,1.048689139,2.462,0,24,24,172,1,365_45a719cabbc9aa308c4fcb30d529489c6966ac4073874af84f665c61_circblurint.jpg,2.507936,-1.968252,circularblurringint,VIWI30081993,2022-06-15_19h33.51,ratings,2022.1.1,MacIntel,58.82352941
-3.021223471,1.518,1.860174782,3.256,0,25,25,571,1,1039_d64da8480fc6e94dcdc513237d600570ae0b9fe48795ac6a8b2d29a7_bw.jpg,-2.507936,-1.142856,blackwhite,VIWI30081993,2022-06-15_19h33.51,ratings,2022.1.1,MacIntel,58.82352941
0.898876404,10.1,0.024968789,12.225,0,26,26,91,1,258_d26019382777d2159a974a7654923e71598135ce2cd710cea1f92865_bw.jpg,3.497684,-0.61104,blackwhite,VIWI30081993,2022-06-15_19h33.51,ratings,2022.1.1,MacIntel,58.82352941
-0.062421973,2.965,1.885143571,4.032,0,27,27,593,1,1228_557412d34d6a70b7c5d222e030aa485b351a4574e8ba1a3112d1d13d_circblurext.jpg,2.137444,0.703464,circularblurringext,VIWI30081993,2022-06-15_19h33.51,ratings,2022.1.1,MacIntel,58.82352941
0.923845194,1.659,1.02372035,2.4,0,28,28,45,1,92_5d20d78a8e57e628c6930676473a4e0a485e715841efd6286c660020_blur.jpg,2.126984,0.0,blurring,VIWI30081993,2022-06-15_19h33.51,ratings,2022.1.1,MacIntel,58.82352941
-2.122347066,1.342,-1.061173533,3.737,0,29,29,131,1,349_18d92ef5c21ca70a3dd237aad251594e1688bbe01d8cff37b89c46b8_circblurext.jpg,-2.74874,-1.258228,circularblurringext,VIWI30081993,2022-06-15_19h33.51,ratings,2022.1.1,MacIntel,58.82352941
1.972534332,2.178,1.947565543,3.073,0,30,30,177,1,368_6507b94d7d0199f14efd3706db30c9c44b96085f84e9cc7792e3e0ae_blur.jpg,1.959544,0.400336,blurring,VIWI30081993,2022-06-15_19h33.51,ratings,2022.1.1,MacIntel,58.82352941
-2.172284644,1.534,-0.973782772,2.554,0,31,31,85,1,243_beddb302dcb21071d88c8d2cab07002050d36b3001ef28f89389fa56_bw.jpg,-0.3450656,-0.2070392,blackwhite,VIWI30081993,2022-06-15_19h33.51,ratings,2022.1.1,MacIntel,58.82352941
-0.012484395,1.662,0.087390762,2.469,0,32,32,44,1,92_5d20d78a8e57e628c6930676473a4e0a485e715841efd6286c660020_edges.jpg,2.126984,0.0,edges,VIWI30081993,2022-06-15_19h33.51,ratings,2022.1.1,MacIntel,58.82352941
0.911360799,1.216,0.898876404,1.929,0,33,33,169,1,365_45a719cabbc9aa308c4fcb30d529489c6966ac4073874af84f665c61_bw.jpg,2.507936,-1.968252,blackwhite,VIWI30081993,2022-06-15_19h33.51,ratings,2022.1.1,MacIntel,58.82352941
1.872659176,1.327,2.072409488,2.116,0,34,34,517,1,860_05c4e22518a30d3d2add458a8fc6488f87b9b02dd8e385ded939f025_bw.jpg,1.955092,0.3097172,blackwhite,VIWI30081993,2022-06-15_19h33.51,ratings,2022.1.1,MacIntel,58.82352941
-1.822721598,1.526,-1.747815231,2.229,0,35,35,576,1,1061_665178b9cb0bc869cc2e2b68def4838db04e66f9531098fb75875a09_orig.jpg,0.3492064,-0.3174604,original,VIWI30081993,2022-06-15_19h33.51,ratings,2022.1.1,MacIntel,58.82352941
-0.973782772,1.834,-1.048689139,3.987,0,36,36,362,1,508_a7a9519cdc7aad6844030f4e6cd96cffd1b9c49b71e20ea52789bda2_edges.jpg,-3.000388,-1.29694,edges,VIWI30081993,2022-06-15_19h33.51,ratings,2022.1.1,MacIntel,58.82352941
-1.960049938,1.331,-1.02372035,2.613,0,37,37,572,1,1039_d64da8480fc6e94dcdc513237d600570ae0b9fe48795ac6a8b2d29a7_edges.jpg,-2.507936,-1.142856,edges,VIWI30081993,2022-06-15_19h33.51,ratings,2022.1.1,MacIntel,58.82352941
1.173533084,2.7,1.048689139,3.566,0,38,38,327,1,468_8b69b13120daebadd8a4a3166e1419f2404395cba231307a4efa9fde_blur.jpg,2.031744,0.2539684,blurring,VIWI30081993,2022-06-15_19h33.51,ratings,2022.1.1,MacIntel,58.82352941
0.049937578,1.526,-0.049937578,2.228,0,39,39,338,1,492_a1a4d288d3bc486c83c3b6a835c42891989f5ba781633932298a7676_edges.jpg,3.406892,-0.44522,edges,VIWI30081993,2022-06-15_19h33.51,ratings,2022.1.1,MacIntel,58.82352941
-0.961298377,1.393,2.097378277,5.622,0,40,40,420,1,692_e3e3bf88684fbbcdb9849a4147f9e2fcd39b0f083554a829aca4e9fa_orig.jpg,-0.44522,3.135888,original,VIWI30081993,2022-06-15_19h33.51,ratings,2022.1.1,MacIntel,58.82352941
2.059925094,2.556,0.349563046,3.905,0,41,41,268,1,431_ab5a1dbbe9292ac7f74e276cdabcd372e2c1f852ff34bf7cc6646ef8_circblurint.jpg,3.102584,0.354334,circularblurringint,VIWI30081993,2022-06-15_19h33.51,ratings,2022.1.1,MacIntel,58.82352941
0.024968789,1.258,-0.024968789,1.933,0,42,42,491,1,818_877aae033c31e3bbca4486321a5307f87cf53c576c546462d3daf194_circblurext.jpg,-1.277584,0.619436,circularblurringext,VIWI30081993,2022-06-15_19h33.51,ratings,2022.1.1,MacIntel,58.82352941
1.872659176,2.579,-2.134831461,4.46,0,43,43,547,1,1010_06d15f44b979c086561137000ec070ba4cd479856f92840a7850b2bf_bw.jpg,0.189786,-0.189786,blackwhite,VIWI30081993,2022-06-15_19h33.51,ratings,2022.1.1,MacIntel,58.82352941
3.021223471,2.088,-2.983770287,3.254,0,44,44,508,1,855_66d893451dfd1e7615132071c6c8a82b02dc2b37781cd89400883b26_circblurint.jpg,2.69484,0.2143624,circularblurringint,VIWI30081993,2022-06-15_19h33.51,ratings,2022.1.1,MacIntel,58.82352941
3.270911361,1.627,-3.021223471,2.729,0,45,45,504,1,855_66d893451dfd1e7615132071c6c8a82b02dc2b37781cd89400883b26_orig.jpg,2.69484,0.2143624,original,VIWI30081993,2022-06-15_19h33.51,ratings,2022.1.1,MacIntel,58.82352941
2.047440699,1.375,-3.021223471,2.551,0,46,46,300,1,453_54f106fd1d4b65fa4aa347407127fc30d49f791e81aee3a0bbe44489_orig.jpg,2.222224,0.0,original,VIWI30081993,2022-06-15_19h33.51,ratings,2022.1.1,MacIntel,58.82352941
0.149812734,2.016,0.124843945,2.68,0,47,47,345,1,494_5c6c3b85a2734a43c24bfe337d42ffcc82b7347227804d01c784cef4_blur.jpg,0.03871468,0.0,blurring,VIWI30081993,2022-06-15_19h33.51,ratings,2022.1.1,MacIntel,58.82352941
-0.087390762,2.034,-2.958801498,2.938,0,48,48,55,1,137_0e6a04243c0a42a5e2528a2d181255ca2a4b7bd6e7978c5c2059c69f_bw.jpg,-0.95238,2.095236,blackwhite,VIWI30081993,2022-06-15_19h33.51,ratings,2022.1.1,MacIntel,58.82352941
-0.986267166,1.545,-0.274656679,3.431,0,49,49,512,1,858_2f6539ee36aba48c38dc716d4f7c3ae93367d6ddf23ab41745d4172c_edges.jpg,0.0623832,0.176752,edges,VIWI30081993,2022-06-15_19h33.51,ratings,2022.1.1,MacIntel,58.82352941
1.810237203,2.167,-3.008739076,3.383,0,50,50,108,1,293_3dfdfafc0c6a54b2da7453750ac281f7718c0b3337b0a74c4563d6bd_orig.jpg,-2.574524,2.632596,original,VIWI30081993,2022-06-15_19h33.51,ratings,2022.1.1,MacIntel,58.82352941
-0.012484395,1.565,-0.024968789,2.501,0,51,51,399,1,683_a004ad18331da968da5debdd15e1447dd7748750af0bc6c57b844200_blur.jpg,-2.91956,2.466524,blurring,VIWI30081993,2022-06-15_19h33.51,ratings,2022.1.1,MacIntel,58.82352941
1.036204744,2.528,-1.935081149,6.638,0,52,52,480,1,759_95e1c46ed9a337414d5c8eada8fa8b9632e18751f5ce6ed587806e91_orig.jpg,2.126984,0.0,original,VIWI30081993,2022-06-15_19h33.51,ratings,2022.1.1,MacIntel,58.82352941
1.011235955,2.162,-0.049937578,3.386,0,53,53,277,1,440_9bf7e8609729bf888835168834da6c3ff30b75d0d4f36e2ee6918bcc_bw.jpg,-2.284164,2.710028,blackwhite,VIWI30081993,2022-06-15_19h33.51,ratings,2022.1.1,MacIntel,58.82352941
2.883895131,1.331,2.784019975,3.165,0,54,54,48,1,112_b6a4ce721c2e42943d7d8b168751d74cd2f372b1cd4fed5a4404faec_orig.jpg,2.107036,0.505688,original,VIWI30081993,2022-06-15_19h33.51,ratings,2022.1.1,MacIntel,58.82352941
0.037453184,1.883,-0.049937578,2.597,0,55,55,450,1,716_2ab64478147184c4df720a52cf621875addc9007cb2967e4a9a88909_orig.jpg,2.428484,0.0,original,VIWI30081993,2022-06-15_19h33.51,ratings,2022.1.1,MacIntel,58.82352941
-1.985018727,1.519,2.209737828,2.504,0,56,56,135,1,349_8809a67686d34844c915d7700e2ea72ad1c02ae232ae0d3cc0e458d4_blur.jpg,-3.619048,-0.2857144,blurring,VIWI30081993,2022-06-15_19h33.51,ratings,2022.1.1,MacIntel,58.82352941
1.897627965,1.343,-1.435705368,2.333,0,57,57,525,1,877_cab3efed0c9ff4552037df6c1ea4ea9713f915c94592a14dbf2799da_blur.jpg,3.174604,0.3174604,blurring,VIWI30081993,2022-06-15_19h33.51,ratings,2022.1.1,MacIntel,58.82352941
1.173533084,1.592,-0.848938826,2.332,0,58,58,81,1,242_85283f6935a89812ab229dcad9ba184529c9242ac3106d768ecf3ab3_blur.jpg,2.14918,-0.2949852,blurring,VIWI30081993,2022-06-15_19h33.51,ratings,2022.1.1,MacIntel,58.82352941
1.473158552,1.412,-1.173533084,2.161,0,59,59,27,1,59_8568373b727f29d67ba6ce4c360dd918c8b08b13495fca56bdda5e82_blur.jpg,2.064896,0.505688,blurring,VIWI30081993,2022-06-15_19h33.51,ratings,2022.1.1,MacIntel,58.82352941
2.509363296,1.268,1.298377029,3.064,0,60,60,118,1,332_4d584229bdae2e1782f77f0e953e528f13c3dfa79b4b94736c0310fa_circblurint.jpg,3.157348,0.483092,circularblurringint,VIWI30081993,2022-06-15_19h33.51,ratings,2022.1.1,MacIntel,58.82352941
1.073657928,1.865,-1.660424469,2.666,0,61,61,427,1,694_7a14b8ab7c564dcb0f628c4de7f6cb54e4c5f6601f774bf167641c37_bw.jpg,1.819588,0.116144,blackwhite,VIWI30081993,2022-06-15_19h33.51,ratings,2022.1.1,MacIntel,58.82352941
-0.224719101,6.842,-2.421972534,5.192,0,62,62,192,1,379_eeaa6d9bf5a4ef205dc48bc505cf3a7f24ea86e99af9b371e03602a7_orig.jpg,-0.3926308,2.88936,original,VIWI30081993,2022-06-15_19h33.51,ratings,2022.1.1,MacIntel,58.82352941
0.711610487,1.325,0.237203496,1.999,0,63,63,113,1,293_3dfdfafc0c6a54b2da7453750ac281f7718c0b3337b0a74c4563d6bd_circblurext.jpg,-2.574524,2.632596,circularblurringext,VIWI30081993,2022-06-15_19h33.51,ratings,2022.1.1,MacIntel,58.82352941
0.112359551,1.552,-1.373283396,2.553,0,64,64,105,1,284_cdcbd54fc995081ac95c8b2c37a19cebb341f61a8eb268cee1623492_blur.jpg,-1.015872,2.095236,blurring,VIWI30081993,2022-06-15_19h33.51,ratings,2022.1.1,MacIntel,58.82352941
1.473158552,1.628,-1.560549313,2.294,0,65,65,38,1,82_43f4d5aec7c2e5bd495473f6708a0f2d47c9fe34e1fe9436646cb036_edges.jpg,2.022756,0.505688,edges,VIWI30081993,2022-06-15_19h33.51,ratings,2022.1.1,MacIntel,58.82352941
1.860174782,1.18,-1.722846442,1.836,0,66,66,447,1,709_69c01dcde028a2a1a913f1a2a5026ae1748484f75c89217a040c6791_blur.jpg,1.432444,-0.01935732,blurring,VIWI30081993,2022-06-15_19h33.51,ratings,2022.1.1,MacIntel,58.82352941
0.024968789,1.249,0.237203496,2.128,0,67,67,451,1,716_2ab64478147184c4df720a52cf621875addc9007cb2967e4a9a88909_bw.jpg,2.428484,0.0,blackwhite,VIWI30081993,2022-06-15_19h33.51,ratings,2022.1.1,MacIntel,58.82352941
-2.784019975,1.493,1.872659176,2.362,0,68,68,163,1,361_b5541309527dc3c2422f45a95ebb0ed32005e6fe10d0489a1ff1fbdc_bw.jpg,-3.987612,-0.2516452,blackwhite,VIWI30081993,2022-06-15_19h33.51,ratings,2022.1.1,MacIntel,58.82352941
-0.124843945,1.276,-0.13732834,2.094,0,69,69,363,1,508_a7a9519cdc7aad6844030f4e6cd96cffd1b9c49b71e20ea52789bda2_blur.jpg,-3.000388,-1.29694,blurring,VIWI30081993,2022-06-15_19h33.51,ratings,2022.1.1,MacIntel,58.82352941
1.310861423,1.076,-1.535580524,1.81,0,70,70,522,1,877_cab3efed0c9ff4552037df6c1ea4ea9713f915c94592a14dbf2799da_orig.jpg,3.174604,0.3174604,original,VIWI30081993,2022-06-15_19h33.51,ratings,2022.1.1,MacIntel,58.82352941
-0.961298377,4.223,-2.397003745,2.866,0,71,71,90,1,258_d26019382777d2159a974a7654923e71598135ce2cd710cea1f92865_orig.jpg,3.497684,-0.61104,original,VIWI30081993,2022-06-15_19h33.51,ratings,2022.1.1,MacIntel,58.82352941
1.1360799,7.568,-1.473158552,9.182,0,72,72,567,1,1037_e2eb929a6de79a63ce6cfe5321fcb74a203b134e4094932d90b01d99_blur.jpg,2.651956,0.0,blurring,VIWI30081993,2022-06-15_19h33.51,ratings,2022.1.1,MacIntel,58.82352941
1.672908864,2.948,-1.897627965,3.837,0,73,73,526,1,877_cab3efed0c9ff4552037df6c1ea4ea9713f915c94592a14dbf2799da_circblurint.jpg,3.174604,0.3174604,circularblurringint,VIWI30081993,2022-06-15_19h33.51,ratings,2022.1.1,MacIntel,58.82352941
-0.074906367,1.393,-1.91011236,2.379,0,74,74,271,1,434_ba36d91204d7e578001f6a545d7501e65d209554def5a3c8b7583825_bw.jpg,-3.523808,1.428572,blackwhite,VIWI30081993,2022-06-15_19h33.51,ratings,2022.1.1,MacIntel,58.82352941
-2.696629213,1.58,1.360799001,2.886,0,75,75,136,1,349_8809a67686d34844c915d7700e2ea72ad1c02ae232ae0d3cc0e458d4_circblurint.jpg,-3.619048,-0.2857144,circularblurringint,VIWI30081993,2022-06-15_19h33.51,ratings,2022.1.1,MacIntel,58.82352941
1.510611735,1.411,-2.209737828,2.132,0,76,76,468,1,741_2b218fb015e3da83db73cacdb52e61e0c2534c1fe255bb1c5c74d47f_orig.jpg,3.140096,0.448584,original,VIWI30081993,2022-06-15_19h33.51,ratings,2022.1.1,MacIntel,58.82352941
2.184769039,3.791,-3.033707865,2.478,0,77,77,456,1,720_483c541c48959a597fcf44320941afaf8b7695105f90d65b5f6b30f2_orig.jpg,2.158732,-0.2539684,original,VIWI30081993,2022-06-15_19h33.51,ratings,2022.1.1,MacIntel,58.82352941
1.573033708,1.266,-0.761548065,3.117,0,78,78,203,1,380_34772591c787182a37724027eac6948ebc9d4064f6a601d23b923b8e_circblurext.jpg,2.222224,-0.063492,circularblurringext,VIWI30081993,2022-06-15_19h33.51,ratings,2022.1.1,MacIntel,58.82352941
1.248439451,1.545,-1.622971286,2.429,0,79,79,182,1,369_98db62a1bdabfd1bc551180da6658005b461585cd21614633cf76470_edges.jpg,2.190476,-0.03174604,edges,VIWI30081993,2022-06-15_19h33.51,ratings,2022.1.1,MacIntel,58.82352941
0.262172285,1.268,-0.162297129,2.012,0,80,80,434,1,694_f80f33613b268beffd6c044537cf3b44a84683d6e889bc37b8e9c34b_edges.jpg,-0.3785616,3.34728,edges,VIWI30081993,2022-06-15_19h33.51,ratings,2022.1.1,MacIntel,58.82352941
-1.298377029,1.543,-1.410736579,2.284,0,81,81,127,1,349_18d92ef5c21ca70a3dd237aad251594e1688bbe01d8cff37b89c46b8_bw.jpg,-2.74874,-1.258228,blackwhite,VIWI30081993,2022-06-15_19h33.51,ratings,2022.1.1,MacIntel,58.82352941
-0.037453184,1.282,-1.622971286,1.915,0,82,82,581,1,1061_665178b9cb0bc869cc2e2b68def4838db04e66f9531098fb75875a09_circblurext.jpg,0.3492064,-0.3174604,circularblurringext,VIWI30081993,2022-06-15_19h33.51,ratings,2022.1.1,MacIntel,58.82352941
0.973782772,2.25,-1.585518102,3.074,0,83,83,256,1,416_5eb54976bb41ce2a6d129ef985f792e716f010fb9b69b15f50f5d2db_circblurint.jpg,-2.58766,2.602972,circularblurringint,VIWI30081993,2022-06-15_19h33.51,ratings,2022.1.1,MacIntel,58.82352941
-1.91011236,1.443,1.335830212,2.638,0,84,84,432,1,694_f80f33613b268beffd6c044537cf3b44a84683d6e889bc37b8e9c34b_orig.jpg,-0.3785616,3.34728,original,VIWI30081993,2022-06-15_19h33.51,ratings,2022.1.1,MacIntel,58.82352941
-0.199750312,1.612,0.88639201,3.337,0,85,85,584,1,1225_59c67a821456f2cce3e5acf66d7f00076bd02caffc984c1eb0df794e_edges.jpg,-0.444444,3.809524,edges,VIWI30081993,2022-06-15_19h33.51,ratings,2022.1.1,MacIntel,58.82352941
-0.24968789,1.242,-0.337078652,1.961,0,86,86,270,1,434_ba36d91204d7e578001f6a545d7501e65d209554def5a3c8b7583825_orig.jpg,-3.523808,1.428572,original,VIWI30081993,2022-06-15_19h33.51,ratings,2022.1.1,MacIntel,58.82352941
0.811485643,1.426,-1.285892634,2.046,0,87,87,168,1,365_45a719cabbc9aa308c4fcb30d529489c6966ac4073874af84f665c61_orig.jpg,2.507936,-1.968252,original,VIWI30081993,2022-06-15_19h33.51,ratings,2022.1.1,MacIntel,58.82352941
0.112359551,1.145,-0.037453184,1.869,0,88,88,92,1,258_d26019382777d2159a974a7654923e71598135ce2cd710cea1f92865_edges.jpg,3.497684,-0.61104,edges,VIWI30081993,2022-06-15_19h33.51,ratings,2022.1.1,MacIntel,58.82352941
-0.099875156,1.282,-0.162297129,1.984,0,89,89,206,1,381_5935a9f9796adce2f1539af6c75bcdc0c80d847a2ce9b77cf59b7672_edges.jpg,-1.327432,-0.442476,edges,VIWI30081993,2022-06-15_19h33.51,ratings,2022.1.1,MacIntel,58.82352941
-1.672908864,1.714,1.885143571,3.146,0,90,90,406,1,686_6745b57686ad5d1bd6cf3e7ed5bc0243a154f8939e88e30321dfcfdb_circblurint.jpg,-1.523808,3.650792,circularblurringint,VIWI30081993,2022-06-15_19h33.51,ratings,2022.1.1,MacIntel,58.82352941
1.63545568,1.497,-2.084893883,2.121,0,91,91,16,1,39_2fafccaa4dc69045a05845f59c6b3cd2edcf7e0e0c108b24e553afe0_circblurint.jpg,2.022756,0.463548,circularblurringint,VIWI30081993,2022-06-15_19h33.51,ratings,2022.1.1,MacIntel,58.82352941
-0.474406991,5.688,-1.061173533,6.44,0,92,92,575,1,1039_d64da8480fc6e94dcdc513237d600570ae0b9fe48795ac6a8b2d29a7_circblurext.jpg,-2.507936,-1.142856,circularblurringext,VIWI30081993,2022-06-15_19h33.51,ratings,2022.1.1,MacIntel,58.82352941
-2.15980025,3.484,1.622971286,2.115,0,93,93,167,1,361_b5541309527dc3c2422f45a95ebb0ed32005e6fe10d0489a1ff1fbdc_circblurext.jpg,-3.987612,-0.2516452,circularblurringext,VIWI30081993,2022-06-15_19h33.51,ratings,2022.1.1,MacIntel,58.82352941
-0.012484395,1.427,-1.747815231,3.752,0,94,94,295,1,449_9c1e990a3480e5b51430fe76b0188e69ba2468fd6a866b88b2d0dd75_bw.jpg,0.095238,0.03174604,blackwhite,VIWI30081993,2022-06-15_19h33.51,ratings,2022.1.1,MacIntel,58.82352941
1.373283396,3.15,-2.197253433,1.835,0,95,95,452,1,716_2ab64478147184c4df720a52cf621875addc9007cb2967e4a9a88909_edges.jpg,2.428484,0.0,edges,VIWI30081993,2022-06-15_19h33.51,ratings,2022.1.1,MacIntel,58.82352941
-0.998751561,1.685,1.161048689,3.265,0,96,96,474,1,748_e519892faa7c772a0afaf9eeff36cf0e411574027ab3d9aa4947a048_orig.jpg,-1.813112,3.307432,original,VIWI30081993,2022-06-15_19h33.51,ratings,2022.1.1,MacIntel,58.82352941
1.410736579,1.601,-2.421972534,2.546,0,97,97,550,1,1010_06d15f44b979c086561137000ec070ba4cd479856f92840a7850b2bf_circblurint.jpg,0.189786,-0.189786,circularblurringint,VIWI30081993,2022-06-15_19h33.51,ratings,2022.1.1,MacIntel,58.82352941
-0.099875156,2.102,0.112359551,4.17,0,98,98,99,1,267_792043debad81ce271cec5b3c3bd9d264efc13f362bec9c7a3f72fe7_blur.jpg,1.980616,0.2107036,blurring,VIWI30081993,2022-06-15_19h33.51,ratings,2022.1.1,MacIntel,58.82352941
-0.037453184,1.443,-0.087390762,2.153,0,99,99,66,1,172_c641c6c56ca6b594b773084e1363c852abdb65f988d7ff802ee503f2_orig.jpg,0.379572,0.01725328,original,VIWI30081993,2022-06-15_19h33.51,ratings,2022.1.1,MacIntel,58.82352941
-0.424469413,1.915,-2.122347066,3.018,0,100,100,146,1,354_e46c3ec6fb00773f64f2bcd212385f253c389808fe724b7cf8611051_edges.jpg,2.018292,0.0,edges,VIWI30081993,2022-06-15_19h33.51,ratings,2022.1.1,MacIntel,58.82352941
1.02372035,3.224,0.923845194,2.496,0,101,101,26,1,59_8568373b727f29d67ba6ce4c360dd918c8b08b13495fca56bdda5e82_edges.jpg,2.064896,0.505688,edges,VIWI30081993,2022-06-15_19h33.51,ratings,2022.1.1,MacIntel,58.82352941
-0.112359551,1.278,-0.13732834,3.054,0,102,102,97,1,267_792043debad81ce271cec5b3c3bd9d264efc13f362bec9c7a3f72fe7_bw.jpg,1.980616,0.2107036,blackwhite,VIWI30081993,2022-06-15_19h33.51,ratings,2022.1.1,MacIntel,58.82352941
1.423220974,2.084,-2.309612984,2.963,0,103,103,381,1,640_0ddb4981a5f5842ed5b4f7ef941be53779189df5e718b1fc5475ad80_blur.jpg,2.571428,-1.873016,blurring,VIWI30081993,2022-06-15_19h33.51,ratings,2022.1.1,MacIntel,58.82352941
0.274656679,1.309,-1.835205993,3.021,0,104,104,455,1,716_2ab64478147184c4df720a52cf621875addc9007cb2967e4a9a88909_circblurext.jpg,2.428484,0.0,circularblurringext,VIWI30081993,2022-06-15_19h33.51,ratings,2022.1.1,MacIntel,58.82352941
0.848938826,2.205,-1.810237203,3.115,0,105,105,484,1,759_95e1c46ed9a337414d5c8eada8fa8b9632e18751f5ce6ed587806e91_circblurint.jpg,2.126984,0.0,circularblurringint,VIWI30081993,2022-06-15_19h33.51,ratings,2022.1.1,MacIntel,58.82352941
-0.898876404,2.403,1.423220974,3.469,0,106,106,588,1,1228_557412d34d6a70b7c5d222e030aa485b351a4574e8ba1a3112d1d13d_orig.jpg,2.137444,0.703464,original,VIWI30081993,2022-06-15_19h33.51,ratings,2022.1.1,MacIntel,58.82352941
-0.911360799,1.843,-1.922596754,2.787,0,107,107,89,1,243_beddb302dcb21071d88c8d2cab07002050d36b3001ef28f89389fa56_circblurext.jpg,-0.3450656,-0.2070392,circularblurringext,VIWI30081993,2022-06-15_19h33.51,ratings,2022.1.1,MacIntel,58.82352941
-1.91011236,1.526,1.660424469,2.564,0,108,108,433,1,694_f80f33613b268beffd6c044537cf3b44a84683d6e889bc37b8e9c34b_bw.jpg,-0.3785616,3.34728,blackwhite,VIWI30081993,2022-06-15_19h33.51,ratings,2022.1.1,MacIntel,58.82352941
-2.334581773,1.527,2.534332085,2.964,0,109,109,492,1,824_b1d91cc824ce0d3d383d3147da88d3d6dbaf6be918bab79e3ec8f501_orig.jpg,-3.645176,-1.432784,original,VIWI30081993,2022-06-15_19h33.51,ratings,2022.1.1,MacIntel,58.82352941
-0.399500624,1.547,-1.373283396,2.668,0,110,110,442,1,700_59cb565f134f1afd066d7b6d936c6511b7cb76de0e9cbb5ce15124ad_circblurint.jpg,0.0,0.0,circularblurringint,VIWI30081993,2022-06-15_19h33.51,ratings,2022.1.1,MacIntel,58.82352941
-1.335830212,1.494,-0.24968789,3.096,0,111,111,360,1,508_a7a9519cdc7aad6844030f4e6cd96cffd1b9c49b71e20ea52789bda2_orig.jpg,-3.000388,-1.29694,original,VIWI30081993,2022-06-15_19h33.51,ratings,2022.1.1,MacIntel,58.82352941
1.423220974,1.359,-0.686641698,2.296,0,112,112,462,1,736_bb85db1bcda8eb34299aa5791ac65a0a7c343266eb2d6e6e328ec0e1_orig.jpg,3.650792,-0.03174604,original,VIWI30081993,2022-06-15_19h33.51,ratings,2022.1.1,MacIntel,58.82352941
-1.38576779,1.915,0.873907615,3.066,0,113,113,402,1,686_6745b57686ad5d1bd6cf3e7ed5bc0243a154f8939e88e30321dfcfdb_orig.jpg,-1.523808,3.650792,original,VIWI30081993,2022-06-15_19h33.51,ratings,2022.1.1,MacIntel,58.82352941
-0.998751561,1.643,0.174781523,2.83,0,114,114,387,1,646_577760d718dab44c6f04d77408c5644a120065ce07a9503957d0850a_blur.jpg,-2.690668,2.61324,blurring,VIWI30081993,2022-06-15_19h33.51,ratings,2022.1.1,MacIntel,58.82352941
-1.285892634,9.615,-1.161048689,10.469,0,115,115,248,1,414_0187bdf7007109b487865b6a9d388997a6817acf052a6a7cdd5b39d9_edges.jpg,-2.786708,-1.133056,edges,VIWI30081993,2022-06-15_19h33.51,ratings,2022.1.1,MacIntel,58.82352941
-0.274656679,1.292,-1.672908864,3.673,0,116,116,370,1,616_05a637f5281666f53d4e2ef69351485fc21d629b37ee2006b2076eb6_circblurint.jpg,-2.380952,-0.832364,circularblurringint,VIWI30081993,2022-06-15_19h33.51,ratings,2022.1.1,MacIntel,58.82352941
0.411985019,1.45,0.099875156,2.344,0,117,117,549,1,1010_06d15f44b979c086561137000ec070ba4cd479856f92840a7850b2bf_blur.jpg,0.189786,-0.189786,blurring,VIWI30081993,2022-06-15_19h33.51,ratings,2022.1.1,MacIntel,58.82352941
-1.735330836,1.491,1.223470662,2.149,0,118,118,160,1,358_157f8ac929713531a15b1ecf115e7b659cb90e83d675251e368d165f_circblurint.jpg,-3.777776,-0.571428,circularblurringint,VIWI30081993,2022-06-15_19h33.51,ratings,2022.1.1,MacIntel,58.82352941
-0.012484395,1.398,-0.012484395,2.193,0,119,119,372,1,620_9674719009d75dcfeaed7f15932c43e1fd1af5e25d47b8aadd61efe2_orig.jpg,-0.561364,1.142084,original,VIWI30081993,2022-06-15_19h33.51,ratings,2022.1.1,MacIntel,58.82352941
0.786516854,1.459,-1.073657928,2.215,0,120,120,278,1,440_9bf7e8609729bf888835168834da6c3ff30b75d0d4f36e2ee6918bcc_edges.jpg,-2.284164,2.710028,edges,VIWI30081993,2022-06-15_19h33.51,ratings,2022.1.1,MacIntel,58.82352941
0.087390762,1.149,0.124843945,1.861,0,121,121,8,1,28_6318543b74eeb646a1735477ebc023fdc9ac3849bc0db1957c272a26_edges.jpg,2.811244,-0.74584,edges,VIWI30081993,2022-06-15_19h33.51,ratings,2022.1.1,MacIntel,58.82352941
0.037453184,1.081,-0.074906367,1.846,0,122,122,10,1,28_6318543b74eeb646a1735477ebc023fdc9ac3849bc0db1957c272a26_circblurint.jpg,2.811244,-0.74584,circularblurringint,VIWI30081993,2022-06-15_19h33.51,ratings,2022.1.1,MacIntel,58.82352941
1.647940075,1.201,-1.298377029,2.212,0,123,123,465,1,736_bb85db1bcda8eb34299aa5791ac65a0a7c343266eb2d6e6e328ec0e1_blur.jpg,3.650792,-0.03174604,blurring,VIWI30081993,2022-06-15_19h33.51,ratings,2022.1.1,MacIntel,58.82352941
-1.797752809,2.178,-1.248439451,3.548,0,124,124,143,1,353_44e285740cb41818482ac93fc5fbd72c18029444a1d7506c9fc053e7_circblurext.jpg,-3.232676,-0.87108,circularblurringext,VIWI30081993,2022-06-15_19h33.51,ratings,2022.1.1,MacIntel,58.82352941
1.697877653,1.144,-2.209737828,1.785,0,125,125,564,1,1037_e2eb929a6de79a63ce6cfe5321fcb74a203b134e4094932d90b01d99_orig.jpg,2.651956,0.0,original,VIWI30081993,2022-06-15_19h33.51,ratings,2022.1.1,MacIntel,58.82352941
-1.435705368,1.784,0.212234707,2.897,0,126,126,234,1,410_9633c4ff6e8888fcfca59a60ca86e9606d3e0736500a254101bdf295_orig.jpg,-0.3677892,2.981028,original,VIWI30081993,2022-06-15_19h33.51,ratings,2022.1.1,MacIntel,58.82352941
-0.012484395,1.259,-0.124843945,2.018,0,127,127,441,1,700_59cb565f134f1afd066d7b6d936c6511b7cb76de0e9cbb5ce15124ad_blur.jpg,0.0,0.0,blurring,VIWI30081993,2022-06-15_19h33.51,ratings,2022.1.1,MacIntel,58.82352941
-2.359550562,1.517,-1.498127341,2.336,0,128,128,247,1,414_0187bdf7007109b487865b6a9d388997a6817acf052a6a7cdd5b39d9_bw.jpg,-2.786708,-1.133056,blackwhite,VIWI30081993,2022-06-15_19h33.51,ratings,2022.1.1,MacIntel,58.82352941
-0.074906367,6.342,-0.074906367,7.381,0,129,129,96,1,267_792043debad81ce271cec5b3c3bd9d264efc13f362bec9c7a3f72fe7_orig.jpg,1.980616,0.2107036,original,VIWI30081993,2022-06-15_19h33.51,ratings,2022.1.1,MacIntel,58.82352941
0.012484395,6.071,-0.199750312,6.713,0,130,130,68,1,172_c641c6c56ca6b594b773084e1363c852abdb65f988d7ff802ee503f2_edges.jpg,0.379572,0.01725328,edges,VIWI30081993,2022-06-15_19h33.51,ratings,2022.1.1,MacIntel,58.82352941
1.77278402,1.327,0.649188514,2.119,0,131,131,516,1,860_05c4e22518a30d3d2add458a8fc6488f87b9b02dd8e385ded939f025_orig.jpg,1.955092,0.3097172,original,VIWI30081993,2022-06-15_19h33.51,ratings,2022.1.1,MacIntel,58.82352941
-1.260923845,1.348,0.586766542,2.116,0,132,132,558,1,1022_cf035e583d41a856836f8b0ae314ecbe79dffd9e40ef6a08cc26028f_orig.jpg,-0.2516452,3.05846,original,VIWI30081993,2022-06-15_19h33.51,ratings,2022.1.1,MacIntel,58.82352941
-0.774032459,2.404,-2.097378277,3.232,0,133,133,298,1,449_9c1e990a3480e5b51430fe76b0188e69ba2468fd6a866b88b2d0dd75_circblurint.jpg,0.095238,0.03174604,circularblurringint,VIWI30081993,2022-06-15_19h33.51,ratings,2022.1.1,MacIntel,58.82352941
-0.511860175,1.125,0.549313358,2.071,0,134,134,389,1,646_577760d718dab44c6f04d77408c5644a120065ce07a9503957d0850a_circblurext.jpg,-2.690668,2.61324,circularblurringext,VIWI30081993,2022-06-15_19h33.51,ratings,2022.1.1,MacIntel,58.82352941
1.960049938,3.302,1.048689139,5.003,0,135,135,115,1,332_4d584229bdae2e1782f77f0e953e528f13c3dfa79b4b94736c0310fa_bw.jpg,3.157348,0.483092,blackwhite,VIWI30081993,2022-06-15_19h33.51,ratings,2022.1.1,MacIntel,58.82352941
-0.986267166,3.307,1.02372035,4.433,0,136,136,328,1,468_8b69b13120daebadd8a4a3166e1419f2404395cba231307a4efa9fde_circblurint.jpg,2.031744,0.2539684,circularblurringint,VIWI30081993,2022-06-15_19h33.51,ratings,2022.1.1,MacIntel,58.82352941
1.1360799,1.542,-1.872659176,3.102,0,137,137,216,1,396_208259ea431d47bb7f3946213eb099834eb119756ce304ad473d4d9f_orig.jpg,2.857144,-0.3809524,original,VIWI30081993,2022-06-15_19h33.51,ratings,2022.1.1,MacIntel,58.82352941
0.037453184,3.874,0.686641698,3.069,0,138,138,98,1,267_792043debad81ce271cec5b3c3bd9d264efc13f362bec9c7a3f72fe7_edges.jpg,1.980616,0.2107036,edges,VIWI30081993,2022-06-15_19h33.51,ratings,2022.1.1,MacIntel,58.82352941
0.099875156,1.196,-1.011235955,2.518,0,139,139,59,1,137_0e6a04243c0a42a5e2528a2d181255ca2a4b7bd6e7978c5c2059c69f_circblurext.jpg,-0.95238,2.095236,circularblurringext,VIWI30081993,2022-06-15_19h33.51,ratings,2022.1.1,MacIntel,58.82352941
1.235955056,1.344,-2.097378277,2.536,0,140,140,82,1,242_85283f6935a89812ab229dcad9ba184529c9242ac3106d768ecf3ab3_circblurint.jpg,2.14918,-0.2949852,circularblurringint,VIWI30081993,2022-06-15_19h33.51,ratings,2022.1.1,MacIntel,58.82352941
1.535580524,1.278,1.148564295,1.969,0,141,141,501,1,854_081a8409e4d6d10923b2dedcc16a3fca405fcd602e55a20d84cac69d_blur.jpg,3.088264,1.21538,blurring,VIWI30081993,2022-06-15_19h33.51,ratings,2022.1.1,MacIntel,58.82352941
-0.511860175,1.427,-1.872659176,2.118,0,142,142,364,1,508_a7a9519cdc7aad6844030f4e6cd96cffd1b9c49b71e20ea52789bda2_circblurint.jpg,-3.000388,-1.29694,circularblurringint,VIWI30081993,2022-06-15_19h33.51,ratings,2022.1.1,MacIntel,58.82352941
1.63545568,1.377,0.299625468,2.402,0,143,143,175,1,368_6507b94d7d0199f14efd3706db30c9c44b96085f84e9cc7792e3e0ae_bw.jpg,1.959544,0.400336,blackwhite,VIWI30081993,2022-06-15_19h33.51,ratings,2022.1.1,MacIntel,58.82352941
-0.399500624,6.441,-0.349563046,7.115,0,144,144,476,1,748_e519892faa7c772a0afaf9eeff36cf0e411574027ab3d9aa4947a048_edges.jpg,-1.813112,3.307432,edges,VIWI30081993,2022-06-15_19h33.51,ratings,2022.1.1,MacIntel,58.82352941
1.610486891,1.193,0.511860175,1.9,0,145,145,39,1,82_43f4d5aec7c2e5bd495473f6708a0f2d47c9fe34e1fe9436646cb036_blur.jpg,2.022756,0.505688,blurring,VIWI30081993,2022-06-15_19h33.51,ratings,2022.1.1,MacIntel,58.82352941
1.210986267,2.779,-0.049937578,3.854,0,146,146,227,1,403_57ac47f43882fc031a6067b1a388c0b2cbe8708dcbd2ff1019932eff_circblurext.jpg,-3.333332,-1.396824,circularblurringext,VIWI30081993,2022-06-15_19h33.51,ratings,2022.1.1,MacIntel,58.82352941
1.298377029,1.284,-1.510611735,1.836,0,147,147,467,1,736_bb85db1bcda8eb34299aa5791ac65a0a7c343266eb2d6e6e328ec0e1_circblurext.jpg,3.650792,-0.03174604,circularblurringext,VIWI30081993,2022-06-15_19h33.51,ratings,2022.1.1,MacIntel,58.82352941
-2.846441948,1.582,1.610486891,2.447,0,148,148,166,1,361_b5541309527dc3c2422f45a95ebb0ed32005e6fe10d0489a1ff1fbdc_circblurint.jpg,-3.987612,-0.2516452,circularblurringint,VIWI30081993,2022-06-15_19h33.51,ratings,2022.1.1,MacIntel,58.82352941
-1.38576779,3.23,0.174781523,4.557,0,149,149,102,1,284_cdcbd54fc995081ac95c8b2c37a19cebb341f61a8eb268cee1623492_orig.jpg,-1.015872,2.095236,original,VIWI30081993,2022-06-15_19h33.51,ratings,2022.1.1,MacIntel,58.82352941
1.997503121,16.557,-1.210986267,17.235,0,150,150,230,1,407_578d31d32e806706dde2563213f130b90e621abfed0e47ecabd85d27_edges.jpg,3.5873,-0.444444,edges,VIWI30081993,2022-06-15_19h33.51,ratings,2022.1.1,MacIntel,58.82352941
1.785268414,1.185,-1.548064919,2.169,0,151,151,178,1,368_6507b94d7d0199f14efd3706db30c9c44b96085f84e9cc7792e3e0ae_circblurint.jpg,1.959544,0.400336,circularblurringint,VIWI30081993,2022-06-15_19h33.51,ratings,2022.1.1,MacIntel,58.82352941
-1.27340824,1.469,1.335830212,2.43,0,152,152,403,1,686_6745b57686ad5d1bd6cf3e7ed5bc0243a154f8939e88e30321dfcfdb_bw.jpg,-1.523808,3.650792,blackwhite,VIWI30081993,2022-06-15_19h33.51,ratings,2022.1.1,MacIntel,58.82352941
1.1360799,1.058,1.210986267,1.913,0,153,153,116,1,332_4d584229bdae2e1782f77f0e953e528f13c3dfa79b4b94736c0310fa_edges.jpg,3.157348,0.483092,edges,VIWI30081993,2022-06-15_19h33.51,ratings,2022.1.1,MacIntel,58.82352941
0.986267166,2.003,0.898876404,2.616,0,154,154,340,1,492_a1a4d288d3bc486c83c3b6a835c42891989f5ba781633932298a7676_circblurint.jpg,3.406892,-0.44522,circularblurringint,VIWI30081993,2022-06-15_19h33.51,ratings,2022.1.1,MacIntel,58.82352941
1.77278402,2.235,-0.736579276,3.532,0,155,155,123,1,347_27f0e47c2722605b950ccf9fa900f78271e4c3c874064ab5dacac160_blur.jpg,1.838948,0.3097172,blurring,VIWI30081993,2022-06-15_19h33.51,ratings,2022.1.1,MacIntel,58.82352941
-1.210986267,1.41,1.510611735,2.029,0,156,156,396,1,683_a004ad18331da968da5debdd15e1447dd7748750af0bc6c57b844200_orig.jpg,-2.91956,2.466524,original,VIWI30081993,2022-06-15_19h33.51,ratings,2022.1.1,MacIntel,58.82352941
1.260923845,1.215,-1.685393258,1.933,0,157,157,301,1,453_54f106fd1d4b65fa4aa347407127fc30d49f791e81aee3a0bbe44489_bw.jpg,2.222224,0.0,blackwhite,VIWI30081993,2022-06-15_19h33.51,ratings,2022.1.1,MacIntel,58.82352941
1.210986267,1.358,-1.585518102,2.132,0,158,158,411,1,687_e3b018945792a574962235c88c553b7c318c75eec2596478e8a7b877_blur.jpg,3.63918,-0.42586,blurring,VIWI30081993,2022-06-15_19h33.51,ratings,2022.1.1,MacIntel,58.82352941
-0.074906367,1.259,-0.049937578,2.011,0,159,159,195,1,379_eeaa6d9bf5a4ef205dc48bc505cf3a7f24ea86e99af9b371e03602a7_blur.jpg,-0.3926308,2.88936,blurring,VIWI30081993,2022-06-15_19h33.51,ratings,2022.1.1,MacIntel,58.82352941
1.111111111,7.749,-1.161048689,8.378,0,160,160,80,1,242_85283f6935a89812ab229dcad9ba184529c9242ac3106d768ecf3ab3_edges.jpg,2.14918,-0.2949852,edges,VIWI30081993,2022-06-15_19h33.51,ratings,2022.1.1,MacIntel,58.82352941
0.811485643,2.466,-1.198501873,3.182,0,161,161,283,1,440_dc6413e2b65369ee2587f4d85621742fe4ca87392d0a8ad2ea7d94e3_bw.jpg,-3.016216,1.69404,blackwhite,VIWI30081993,2022-06-15_19h33.51,ratings,2022.1.1,MacIntel,58.82352941
1.660424469,2.581,-2.247191011,4.088,0,162,162,541,1,1005_b980c0747d20935bc63cc27a9e05ce2ff5bae98f859872ec48edd7f5_bw.jpg,3.428572,-0.476192,blackwhite,VIWI30081993,2022-06-15_19h33.51,ratings,2022.1.1,MacIntel,58.82352941
1.672908864,1.06,-0.686641698,1.963,0,163,163,449,1,709_69c01dcde028a2a1a913f1a2a5026ae1748484f75c89217a040c6791_circblurext.jpg,1.432444,-0.01935732,circularblurringext,VIWI30081993,2022-06-15_19h33.51,ratings,2022.1.1,MacIntel,58.82352941
1.460674157,1.201,-1.535580524,1.778,0,164,164,79,1,242_85283f6935a89812ab229dcad9ba184529c9242ac3106d768ecf3ab3_bw.jpg,2.14918,-0.2949852,blackwhite,VIWI30081993,2022-06-15_19h33.51,ratings,2022.1.1,MacIntel,58.82352941
1.161048689,1.393,-2.122347066,2.611,0,165,165,220,1,396_208259ea431d47bb7f3946213eb099834eb119756ce304ad473d4d9f_circblurint.jpg,2.857144,-0.3809524,circularblurringint,VIWI30081993,2022-06-15_19h33.51,ratings,2022.1.1,MacIntel,58.82352941
1.710362047,1.234,-2.02247191,2.411,0,166,166,336,1,492_a1a4d288d3bc486c83c3b6a835c42891989f5ba781633932298a7676_orig.jpg,3.406892,-0.44522,original,VIWI30081993,2022-06-15_19h33.51,ratings,2022.1.1,MacIntel,58.82352941
-2.2721598,14.963,-2.896379526,16.522,0,167,167,532,1,915_dc9fd40a3b5d64a180833a7bac86e7556c24f681f473fe255e41f936_circblurint.jpg,-3.09294,-0.918696,circularblurringint,VIWI30081993,2022-06-15_19h33.51,ratings,2022.1.1,MacIntel,58.82352941
-2.347066167,1.432,-2.871410737,2.032,0,168,168,436,1,694_f80f33613b268beffd6c044537cf3b44a84683d6e889bc37b8e9c34b_circblurint.jpg,-0.3785616,3.34728,circularblurringint,VIWI30081993,2022-06-15_19h33.51,ratings,2022.1.1,MacIntel,58.82352941
3.083645443,4.117,-1.810237203,5.136,0,169,169,37,1,82_43f4d5aec7c2e5bd495473f6708a0f2d47c9fe34e1fe9436646cb036_bw.jpg,2.022756,0.505688,blackwhite,VIWI30081993,2022-06-15_19h33.51,ratings,2022.1.1,MacIntel,58.82352941
-3.183520599,1.361,-0.786516854,2.284,0,170,170,335,1,482_a1cd28915c5044c018195ab0fff10dcc95e385246b045a7cd4463ff7_circblurext.jpg,-3.361852,-1.555612,circularblurringext,VIWI30081993,2022-06-15_19h33.51,ratings,2022.1.1,MacIntel,58.82352941
-3.196004994,1.246,-1.036204744,2.069,0,171,171,538,1,986_a77edb21e78bc3a6aa7406517824596b3496ad6c657b6befb84cf370_circblurint.jpg,-3.906316,-0.60496,circularblurringint,VIWI30081993,2022-06-15_19h33.51,ratings,2022.1.1,MacIntel,58.82352941
2.784019975,2.053,-3.15855181,3.149,0,172,172,74,1,236_f645730e1eb06155418c9a571329cc7fa320654fcaaedf1048b5cc11_edges.jpg,2.253968,0.0,edges,VIWI30081993,2022-06-15_19h33.51,ratings,2022.1.1,MacIntel,58.82352941
1.098626717,1.811,-2.921348315,2.612,0,173,173,470,1,741_2b218fb015e3da83db73cacdb52e61e0c2534c1fe255bb1c5c74d47f_edges.jpg,3.140096,0.448584,edges,VIWI30081993,2022-06-15_19h33.51,ratings,2022.1.1,MacIntel,58.82352941
-0.037453184,2.784,-3.04619226,3.633,0,174,174,439,1,700_59cb565f134f1afd066d7b6d936c6511b7cb76de0e9cbb5ce15124ad_bw.jpg,0.0,0.0,blackwhite,VIWI30081993,2022-06-15_19h33.51,ratings,2022.1.1,MacIntel,58.82352941
-0.112359551,1.075,-0.237203496,1.636,0,175,175,112,1,293_3dfdfafc0c6a54b2da7453750ac281f7718c0b3337b0a74c4563d6bd_circblurint.jpg,-2.574524,2.632596,circularblurringint,VIWI30081993,2022-06-15_19h33.51,ratings,2022.1.1,MacIntel,58.82352941
-1.860174782,1.476,-2.90886392,2.598,0,176,176,209,1,381_5935a9f9796adce2f1539af6c75bcdc0c80d847a2ce9b77cf59b7672_circblurext.jpg,-1.327432,-0.442476,circularblurringext,VIWI30081993,2022-06-15_19h33.51,ratings,2022.1.1,MacIntel,58.82352941
-3.470661673,1.226,0.174781523,5.295,0,177,177,497,1,824_b1d91cc824ce0d3d383d3147da88d3d6dbaf6be918bab79e3ec8f501_circblurext.jpg,-3.645176,-1.432784,circularblurringext,VIWI30081993,2022-06-15_19h33.51,ratings,2022.1.1,MacIntel,58.82352941
1.161048689,1.251,-1.423220974,1.819,0,178,178,165,1,361_b5541309527dc3c2422f45a95ebb0ed32005e6fe10d0489a1ff1fbdc_blur.jpg,-3.987612,-0.2516452,blurring,VIWI30081993,2022-06-15_19h33.51,ratings,2022.1.1,MacIntel,58.82352941
1.760299625,2.401,-1.797752809,3.156,0,179,179,395,1,663_aaf52107fe3a86392530d88b34e86f9d2b6820714cad98d1e3c2cb67_circblurext.jpg,2.58766,0.0918696,circularblurringext,VIWI30081993,2022-06-15_19h33.51,ratings,2022.1.1,MacIntel,58.82352941
1.27340824,3.623,-1.822721598,5.155,0,180,180,2,1,13_771f4fcf0a212d25d6a78565e7f34cc5ddd823e7afbdc77ef063326e_edges.jpg,2.190476,0.0,edges,VIWI30081993,2022-06-15_19h33.51,ratings,2022.1.1,MacIntel,58.82352941
1.598002497,1.042,-1.735330836,1.692,0,181,181,568,1,1037_e2eb929a6de79a63ce6cfe5321fcb74a203b134e4094932d90b01d99_circblurint.jpg,2.651956,0.0,circularblurringint,VIWI30081993,2022-06-15_19h33.51,ratings,2022.1.1,MacIntel,58.82352941
1.710362047,1.116,-1.622971286,1.693,0,182,182,3,1,13_771f4fcf0a212d25d6a78565e7f34cc5ddd823e7afbdc77ef063326e_blur.jpg,2.190476,0.0,blurring,VIWI30081993,2022-06-15_19h33.51,ratings,2022.1.1,MacIntel,58.82352941
-2.584269663,1.426,0.561797753,3.45,0,183,183,142,1,353_44e285740cb41818482ac93fc5fbd72c18029444a1d7506c9fc053e7_circblurint.jpg,-3.232676,-0.87108,circularblurringint,VIWI30081993,2022-06-15_19h33.51,ratings,2022.1.1,MacIntel,58.82352941
1.897627965,4.341,-0.898876404,5.11,0,184,184,232,1,407_578d31d32e806706dde2563213f130b90e621abfed0e47ecabd85d27_circblurint.jpg,3.5873,-0.444444,circularblurringint,VIWI30081993,2022-06-15_19h33.51,ratings,2022.1.1,MacIntel,58.82352941
1.235955056,2.964,-1.785268414,4.2,0,185,185,351,1,498_305b74cdc4784d9d25e72724302e5402def70177ea31ae7e25fab66b_blur.jpg,3.04762,-0.444444,blurring,VIWI30081993,2022-06-15_19h33.51,ratings,2022.1.1,MacIntel,58.82352941
1.048689139,1.009,-2.484394507,1.779,0,186,186,329,1,468_8b69b13120daebadd8a4a3166e1419f2404395cba231307a4efa9fde_circblurext.jpg,2.031744,0.2539684,circularblurringext,VIWI30081993,2022-06-15_19h33.51,ratings,2022.1.1,MacIntel,58.82352941
-2.2721598,1.259,0.49937578,4.419,0,187,187,359,1,500_3b520c7f352afa1a9f8c07e56cc0588cdc04d25ff6e7b602b5e280cb_circblurext.jpg,-0.8328,3.11766,circularblurringext,VIWI30081993,2022-06-15_19h33.51,ratings,2022.1.1,MacIntel,58.82352941
-1.835205993,7.593,-0.049937578,10.318,0,188,188,272,1,434_ba36d91204d7e578001f6a545d7501e65d209554def5a3c8b7583825_edges.jpg,-3.523808,1.428572,edges,VIWI30081993,2022-06-15_19h33.51,ratings,2022.1.1,MacIntel,58.82352941
-0.049937578,1.693,0.012484395,2.298,0,189,189,128,1,349_18d92ef5c21ca70a3dd237aad251594e1688bbe01d8cff37b89c46b8_edges.jpg,-2.74874,-1.258228,edges,VIWI30081993,2022-06-15_19h33.51,ratings,2022.1.1,MacIntel,58.82352941
-1.985018727,3.953,-1.048689139,5.339,0,190,190,88,1,243_beddb302dcb21071d88c8d2cab07002050d36b3001ef28f89389fa56_circblurint.jpg,-0.3450656,-0.2070392,circularblurringint,VIWI30081993,2022-06-15_19h33.51,ratings,2022.1.1,MacIntel,58.82352941
-1.02372035,2.266,-1.098626717,3.623,0,191,191,325,1,468_8b69b13120daebadd8a4a3166e1419f2404395cba231307a4efa9fde_bw.jpg,2.031744,0.2539684,blackwhite,VIWI30081993,2022-06-15_19h33.51,ratings,2022.1.1,MacIntel,58.82352941
-0.149812734,1.611,-0.524344569,2.182,0,192,192,384,1,646_577760d718dab44c6f04d77408c5644a120065ce07a9503957d0850a_orig.jpg,-2.690668,2.61324,original,VIWI30081993,2022-06-15_19h33.51,ratings,2022.1.1,MacIntel,58.82352941
0.012484395,1.894,-0.174781523,3.047,0,193,193,19,1,48_2cc936b2483ab2944c9158e163342b874ef6c1492fd8fca08c0e096e_bw.jpg,-1.264224,-0.779604,blackwhite,VIWI30081993,2022-06-15_19h33.51,ratings,2022.1.1,MacIntel,58.82352941
0.861423221,1.526,0.224719101,2.513,0,194,194,154,1,355_00a76f54934d36566dd0e7b091b8aa6a56d8e6b32d349aa578a10b45_circblurint.jpg,2.910052,0.3439152,circularblurringint,VIWI30081993,2022-06-15_19h33.51,ratings,2022.1.1,MacIntel,58.82352941
0.262172285,1.198,0.212234707,1.848,0,195,195,23,1,48_2cc936b2483ab2944c9158e163342b874ef6c1492fd8fca08c0e096e_circblurext.jpg,-1.264224,-0.779604,circularblurringext,VIWI30081993,2022-06-15_19h33.51,ratings,2022.1.1,MacIntel,58.82352941
1.235955056,4.276,-1.485642946,4.958,0,196,196,64,1,156_08e8cf8f04630e9213e610580de73f51572d1d589878648700bae4dc_circblurint.jpg,2.222224,0.0,circularblurringint,VIWI30081993,2022-06-15_19h33.51,ratings,2022.1.1,MacIntel,58.82352941
0.436953808,1.1,0.062421973,1.684,0,197,197,54,1,137_0e6a04243c0a42a5e2528a2d181255ca2a4b7bd6e7978c5c2059c69f_orig.jpg,-0.95238,2.095236,original,VIWI30081993,2022-06-15_19h33.51,ratings,2022.1.1,MacIntel,58.82352941
-2.871410737,1.236,1.073657928,1.894,0,198,198,162,1,361_b5541309527dc3c2422f45a95ebb0ed32005e6fe10d0489a1ff1fbdc_orig.jpg,-3.987612,-0.2516452,original,VIWI30081993,2022-06-15_19h33.51,ratings,2022.1.1,MacIntel,58.82352941
-1.885143571,1.162,0.536828964,2.67,0,199,199,355,1,500_3b520c7f352afa1a9f8c07e56cc0588cdc04d25ff6e7b602b5e280cb_bw.jpg,-0.8328,3.11766,blackwhite,VIWI30081993,2022-06-15_19h33.51,ratings,2022.1.1,MacIntel,58.82352941
-2.134831461,1.075,0.686641698,1.878,0,200,200,495,1,824_b1d91cc824ce0d3d383d3147da88d3d6dbaf6be918bab79e3ec8f501_blur.jpg,-3.645176,-1.432784,blurring,VIWI30081993,2022-06-15_19h33.51,ratings,2022.1.1,MacIntel,58.82352941
1.535580524,3.238,-1.460674157,3.857,0,201,201,483,1,759_95e1c46ed9a337414d5c8eada8fa8b9632e18751f5ce6ed587806e91_blur.jpg,2.126984,0.0,blurring,VIWI30081993,2022-06-15_19h33.51,ratings,2022.1.1,MacIntel,58.82352941
-1.710362047,1.214,0.312109863,1.809,0,202,202,156,1,358_157f8ac929713531a15b1ecf115e7b659cb90e83d675251e368d165f_orig.jpg,-3.777776,-0.571428,original,VIWI30081993,2022-06-15_19h33.51,ratings,2022.1.1,MacIntel,58.82352941
1.810237203,1.209,1.061173533,2.538,0,203,203,24,1,59_8568373b727f29d67ba6ce4c360dd918c8b08b13495fca56bdda5e82_orig.jpg,2.064896,0.505688,original,VIWI30081993,2022-06-15_19h33.51,ratings,2022.1.1,MacIntel,58.82352941
-0.611735331,2.234,-0.124843945,2.801,0,204,204,87,1,243_beddb302dcb21071d88c8d2cab07002050d36b3001ef28f89389fa56_blur.jpg,-0.3450656,-0.2070392,blurring,VIWI30081993,2022-06-15_19h33.51,ratings,2022.1.1,MacIntel,58.82352941
0.873907615,1.7,0.199750312,2.284,0,205,205,225,1,403_57ac47f43882fc031a6067b1a388c0b2cbe8708dcbd2ff1019932eff_blur.jpg,-3.333332,-1.396824,blurring,VIWI30081993,2022-06-15_19h33.51,ratings,2022.1.1,MacIntel,58.82352941
0.898876404,1.249,0.212234707,1.779,0,206,206,224,1,403_57ac47f43882fc031a6067b1a388c0b2cbe8708dcbd2ff1019932eff_edges.jpg,-3.333332,-1.396824,edges,VIWI30081993,2022-06-15_19h33.51,ratings,2022.1.1,MacIntel,58.82352941
-1.260923845,10.943,-2.109862672,11.842,0,207,207,347,1,494_5c6c3b85a2734a43c24bfe337d42ffcc82b7347227804d01c784cef4_circblurext.jpg,0.03871468,0.0,circularblurringext,VIWI30081993,2022-06-15_19h33.51,ratings,2022.1.1,MacIntel,58.82352941
-1.173533084,1.242,-0.961298377,1.877,0,208,208,421,1,692_e3e3bf88684fbbcdb9849a4147f9e2fcd39b0f083554a829aca4e9fa_bw.jpg,-0.44522,3.135888,blackwhite,VIWI30081993,2022-06-15_19h33.51,ratings,2022.1.1,MacIntel,58.82352941
-0.88639201,1.159,-0.961298377,1.733,0,209,209,422,1,692_e3e3bf88684fbbcdb9849a4147f9e2fcd39b0f083554a829aca4e9fa_edges.jpg,-0.44522,3.135888,edges,VIWI30081993,2022-06-15_19h33.51,ratings,2022.1.1,MacIntel,58.82352941
-0.312109863,3.841,-0.062421973,3.063,0,210,210,513,1,858_2f6539ee36aba48c38dc716d4f7c3ae93367d6ddf23ab41745d4172c_blur.jpg,0.0623832,0.176752,blurring,VIWI30081993,2022-06-15_19h33.51,ratings,2022.1.1,MacIntel,58.82352941
1.473158552,1.232,-0.961298377,1.796,0,211,211,304,1,453_54f106fd1d4b65fa4aa347407127fc30d49f791e81aee3a0bbe44489_circblurint.jpg,2.222224,0.0,circularblurringint,VIWI30081993,2022-06-15_19h33.51,ratings,2022.1.1,MacIntel,58.82352941
1.248439451,1.081,1.897627965,2.887,0,212,212,500,1,854_081a8409e4d6d10923b2dedcc16a3fca405fcd602e55a20d84cac69d_edges.jpg,3.088264,1.21538,edges,VIWI30081993,2022-06-15_19h33.51,ratings,2022.1.1,MacIntel,58.82352941
-0.449438202,1.861,-1.073657928,2.43,0,213,213,488,1,818_877aae033c31e3bbca4486321a5307f87cf53c576c546462d3daf194_edges.jpg,-1.277584,0.619436,edges,VIWI30081993,2022-06-15_19h33.51,ratings,2022.1.1,MacIntel,58.82352941
1.323345818,1.062,-1.473158552,1.582,0,214,214,527,1,877_cab3efed0c9ff4552037df6c1ea4ea9713f915c94592a14dbf2799da_circblurext.jpg,3.174604,0.3174604,circularblurringext,VIWI30081993,2022-06-15_19h33.51,ratings,2022.1.1,MacIntel,58.82352941
1.210986267,1.26,-2.334581773,1.812,0,215,215,409,1,687_e3b018945792a574962235c88c553b7c318c75eec2596478e8a7b877_bw.jpg,3.63918,-0.42586,blackwhite,VIWI30081993,2022-06-15_19h33.51,ratings,2022.1.1,MacIntel,58.82352941
-0.262172285,2.335,0.13732834,3.189,0,216,216,454,1,716_2ab64478147184c4df720a52cf621875addc9007cb2967e4a9a88909_circblurint.jpg,2.428484,0.0,circularblurringint,VIWI30081993,2022-06-15_19h33.51,ratings,2022.1.1,MacIntel,58.82352941
0.312109863,1.444,0.324594257,2.112,0,217,217,22,1,48_2cc936b2483ab2944c9158e163342b874ef6c1492fd8fca08c0e096e_circblurint.jpg,-1.264224,-0.779604,circularblurringint,VIWI30081993,2022-06-15_19h33.51,ratings,2022.1.1,MacIntel,58.82352941
-2.197253433,1.431,1.298377029,8.38,0,218,218,496,1,824_b1d91cc824ce0d3d383d3147da88d3d6dbaf6be918bab79e3ec8f501_circblurint.jpg,-3.645176,-1.432784,circularblurringint,VIWI30081993,2022-06-15_19h33.51,ratings,2022.1.1,MacIntel,58.82352941
-0.087390762,1.744,0.049937578,2.68,0,219,219,71,1,172_c641c6c56ca6b594b773084e1363c852abdb65f988d7ff802ee503f2_circblurext.jpg,0.379572,0.01725328,circularblurringext,VIWI30081993,2022-06-15_19h33.51,ratings,2022.1.1,MacIntel,58.82352941
-1.885143571,1.091,0.436953808,1.876,0,220,220,583,1,1225_59c67a821456f2cce3e5acf66d7f00076bd02caffc984c1eb0df794e_bw.jpg,-0.444444,3.809524,blackwhite,VIWI30081993,2022-06-15_19h33.51,ratings,2022.1.1,MacIntel,58.82352941
0.062421973,1.063,-0.299625468,1.593,0,221,221,542,1,1005_b980c0747d20935bc63cc27a9e05ce2ff5bae98f859872ec48edd7f5_edges.jpg,3.428572,-0.476192,edges,VIWI30081993,2022-06-15_19h33.51,ratings,2022.1.1,MacIntel,58.82352941
-1.423220974,1.161,0.486891386,3.065,0,222,222,249,1,414_0187bdf7007109b487865b6a9d388997a6817acf052a6a7cdd5b39d9_blur.jpg,-2.786708,-1.133056,blurring,VIWI30081993,2022-06-15_19h33.51,ratings,2022.1.1,MacIntel,58.82352941
-2.122347066,1.164,0.823970037,1.927,0,223,223,132,1,349_8809a67686d34844c915d7700e2ea72ad1c02ae232ae0d3cc0e458d4_orig.jpg,-3.619048,-0.2857144,original,VIWI30081993,2022-06-15_19h33.51,ratings,2022.1.1,MacIntel,58.82352941
1.423220974,1.695,-1.235955056,2.285,0,224,224,72,1,236_f645730e1eb06155418c9a571329cc7fa320654fcaaedf1048b5cc11_orig.jpg,2.253968,0.0,original,VIWI30081993,2022-06-15_19h33.51,ratings,2022.1.1,MacIntel,58.82352941
-1.235955056,1.661,-1.922596754,2.746,0,225,225,259,1,416_8a1f874e0057d67a4e6955865ba88b2d8ce2c8b4469589307687a723_bw.jpg,-1.753336,3.088264,blackwhite,VIWI30081993,2022-06-15_19h33.51,ratings,2022.1.1,MacIntel,58.82352941
0.112359551,1.193,-0.836454432,1.915,0,226,226,11,1,28_6318543b74eeb646a1735477ebc023fdc9ac3849bc0db1957c272a26_circblurext.jpg,2.811244,-0.74584,circularblurringext,VIWI30081993,2022-06-15_19h33.51,ratings,2022.1.1,MacIntel,58.82352941
0.711610487,1.911,-1.735330836,2.951,0,227,227,282,1,440_dc6413e2b65369ee2587f4d85621742fe4ca87392d0a8ad2ea7d94e3_orig.jpg,-3.016216,1.69404,original,VIWI30081993,2022-06-15_19h33.51,ratings,2022.1.1,MacIntel,58.82352941
0.811485643,1.248,-1.585518102,2.616,0,228,228,524,1,877_cab3efed0c9ff4552037df6c1ea4ea9713f915c94592a14dbf2799da_edges.jpg,3.174604,0.3174604,edges,VIWI30081993,2022-06-15_19h33.51,ratings,2022.1.1,MacIntel,58.82352941
-0.149812734,1.682,1.310861423,3.038,0,229,229,367,1,616_05a637f5281666f53d4e2ef69351485fc21d629b37ee2006b2076eb6_bw.jpg,-2.380952,-0.832364,blackwhite,VIWI30081993,2022-06-15_19h33.51,ratings,2022.1.1,MacIntel,58.82352941
0.561797753,5.32,-0.199750312,8.431,0,230,230,293,1,442_7449d79dae5d652af9b2429872cabdef938646ba024db2f431b3b28d_circblurext.jpg,1.619048,0.126984,circularblurringext,VIWI30081993,2022-06-15_19h33.51,ratings,2022.1.1,MacIntel,58.82352941
0.873907615,1.243,-1.098626717,1.843,0,231,231,228,1,407_578d31d32e806706dde2563213f130b90e621abfed0e47ecabd85d27_orig.jpg,3.5873,-0.444444,original,VIWI30081993,2022-06-15_19h33.51,ratings,2022.1.1,MacIntel,58.82352941
2.072409488,1.242,1.647940075,1.785,0,232,232,51,1,112_b6a4ce721c2e42943d7d8b168751d74cd2f372b1cd4fed5a4404faec_blur.jpg,2.107036,0.505688,blurring,VIWI30081993,2022-06-15_19h33.51,ratings,2022.1.1,MacIntel,58.82352941
-0.062421973,4.751,-1.198501873,5.388,0,233,233,578,1,1061_665178b9cb0bc869cc2e2b68def4838db04e66f9531098fb75875a09_edges.jpg,0.3492064,-0.3174604,edges,VIWI30081993,2022-06-15_19h33.51,ratings,2022.1.1,MacIntel,58.82352941
-1.111111111,1.213,0.799001248,1.836,0,234,234,251,1,414_0187bdf7007109b487865b6a9d388997a6817acf052a6a7cdd5b39d9_circblurext.jpg,-2.786708,-1.133056,circularblurringext,VIWI30081993,2022-06-15_19h33.51,ratings,2022.1.1,MacIntel,58.82352941
1.036204744,1.076,-1.248439451,1.609,0,235,235,189,1,369_c99797771115d7627d4abe3415f814497288f91a7be1a04c17c776b9_blur.jpg,3.619824,-0.174216,blurring,VIWI30081993,2022-06-15_19h33.51,ratings,2022.1.1,MacIntel,58.82352941
-1.02372035,1.197,0.112359551,2.036,0,236,236,161,1,358_157f8ac929713531a15b1ecf115e7b659cb90e83d675251e368d165f_circblurext.jpg,-3.777776,-0.571428,circularblurringext,VIWI30081993,2022-06-15_19h33.51,ratings,2022.1.1,MacIntel,58.82352941
0.973782772,1.751,0.149812734,2.345,0,237,237,155,1,355_00a76f54934d36566dd0e7b091b8aa6a56d8e6b32d349aa578a10b45_circblurext.jpg,2.910052,0.3439152,circularblurringext,VIWI30081993,2022-06-15_19h33.51,ratings,2022.1.1,MacIntel,58.82352941
1.985018727,1.126,-1.735330836,2.346,0,238,238,505,1,855_66d893451dfd1e7615132071c6c8a82b02dc2b37781cd89400883b26_bw.jpg,2.69484,0.2143624,blackwhite,VIWI30081993,2022-06-15_19h33.51,ratings,2022.1.1,MacIntel,58.82352941
0.998751561,1.118,0.024968789,1.777,0,239,239,63,1,156_08e8cf8f04630e9213e610580de73f51572d1d589878648700bae4dc_blur.jpg,2.222224,0.0,blurring,VIWI30081993,2022-06-15_19h33.51,ratings,2022.1.1,MacIntel,58.82352941
-1.073657928,2.079,0.948813983,2.831,0,240,240,405,1,686_6745b57686ad5d1bd6cf3e7ed5bc0243a154f8939e88e30321dfcfdb_blur.jpg,-1.523808,3.650792,blurring,VIWI30081993,2022-06-15_19h33.51,ratings,2022.1.1,MacIntel,58.82352941
-0.861423221,1.343,-0.049937578,2.38,0,241,241,214,1,394_8e3a0cb945144d53bd1ace04b6256237ed9dcbbd9cb83f8a4886b0e6_circblurint.jpg,-2.593884,2.651956,circularblurringint,VIWI30081993,2022-06-15_19h33.51,ratings,2022.1.1,MacIntel,58.82352941
-0.287141074,1.485,-0.124843945,2.134,0,242,242,239,1,410_9633c4ff6e8888fcfca59a60ca86e9606d3e0736500a254101bdf295_circblurext.jpg,-0.3677892,2.981028,circularblurringext,VIWI30081993,2022-06-15_19h33.51,ratings,2022.1.1,MacIntel,58.82352941
-1.722846442,1.219,0.761548065,1.929,0,243,243,529,1,915_dc9fd40a3b5d64a180833a7bac86e7556c24f681f473fe255e41f936_bw.jpg,-3.09294,-0.918696,blackwhite,VIWI30081993,2022-06-15_19h33.51,ratings,2022.1.1,MacIntel,58.82352941
0.998751561,1.511,-0.786516854,2.162,0,244,244,410,1,687_e3b018945792a574962235c88c553b7c318c75eec2596478e8a7b877_edges.jpg,3.63918,-0.42586,edges,VIWI30081993,2022-06-15_19h33.51,ratings,2022.1.1,MacIntel,58.82352941
0.88639201,4.371,-0.174781523,4.941,0,245,245,544,1,1005_b980c0747d20935bc63cc27a9e05ce2ff5bae98f859872ec48edd7f5_circblurint.jpg,3.428572,-0.476192,circularblurringint,VIWI30081993,2022-06-15_19h33.51,ratings,2022.1.1,MacIntel,58.82352941
-1.735330836,1.112,0.349563046,1.864,0,246,246,157,1,358_157f8ac929713531a15b1ecf115e7b659cb90e83d675251e368d165f_bw.jpg,-3.777776,-0.571428,blackwhite,VIWI30081993,2022-06-15_19h33.51,ratings,2022.1.1,MacIntel,58.82352941
-0.212234707,1.412,-0.062421973,1.977,0,247,247,369,1,616_05a637f5281666f53d4e2ef69351485fc21d629b37ee2006b2076eb6_blur.jpg,-2.380952,-0.832364,blurring,VIWI30081993,2022-06-15_19h33.51,ratings,2022.1.1,MacIntel,58.82352941
-1.52309613,1.176,-0.299625468,1.918,0,248,248,535,1,986_a77edb21e78bc3a6aa7406517824596b3496ad6c657b6befb84cf370_bw.jpg,-3.906316,-0.60496,blackwhite,VIWI30081993,2022-06-15_19h33.51,ratings,2022.1.1,MacIntel,58.82352941
1.161048689,1.166,-1.061173533,3.038,0,249,249,460,1,720_483c541c48959a597fcf44320941afaf8b7695105f90d65b5f6b30f2_circblurint.jpg,2.158732,-0.2539684,circularblurringint,VIWI30081993,2022-06-15_19h33.51,ratings,2022.1.1,MacIntel,58.82352941
0.299625468,1.798,-0.811485643,2.646,0,250,250,150,1,355_00a76f54934d36566dd0e7b091b8aa6a56d8e6b32d349aa578a10b45_orig.jpg,2.910052,0.3439152,original,VIWI30081993,2022-06-15_19h33.51,ratings,2022.1.1,MacIntel,58.82352941
-0.112359551,1.398,-0.149812734,2.098,0,251,251,477,1,748_e519892faa7c772a0afaf9eeff36cf0e411574027ab3d9aa4947a048_blur.jpg,-1.813112,3.307432,blurring,VIWI30081993,2022-06-15_19h33.51,ratings,2022.1.1,MacIntel,58.82352941
-0.262172285,1.217,-0.062421973,2.137,0,252,252,392,1,663_aaf52107fe3a86392530d88b34e86f9d2b6820714cad98d1e3c2cb67_edges.jpg,2.58766,0.0918696,edges,VIWI30081993,2022-06-15_19h33.51,ratings,2022.1.1,MacIntel,58.82352941
-0.287141074,7.176,-0.436953808,7.866,0,253,253,62,1,156_08e8cf8f04630e9213e610580de73f51572d1d589878648700bae4dc_edges.jpg,2.222224,0.0,edges,VIWI30081993,2022-06-15_19h33.51,ratings,2022.1.1,MacIntel,58.82352941
-1.048689139,1.242,-0.212234707,1.914,0,254,254,134,1,349_8809a67686d34844c915d7700e2ea72ad1c02ae232ae0d3cc0e458d4_edges.jpg,-3.619048,-0.2857144,edges,VIWI30081993,2022-06-15_19h33.51,ratings,2022.1.1,MacIntel,58.82352941
1.036204744,1.024,1.660424469,1.611,0,255,255,502,1,854_081a8409e4d6d10923b2dedcc16a3fca405fcd602e55a20d84cac69d_circblurint.jpg,3.088264,1.21538,circularblurringint,VIWI30081993,2022-06-15_19h33.51,ratings,2022.1.1,MacIntel,58.82352941
-0.012484395,1.176,-0.049937578,1.831,0,256,256,20,1,48_2cc936b2483ab2944c9158e163342b874ef6c1492fd8fca08c0e096e_edges.jpg,-1.264224,-0.779604,edges,VIWI30081993,2022-06-15_19h33.51,ratings,2022.1.1,MacIntel,58.82352941
-1.223470662,1.084,1.02372035,2.52,0,257,257,137,1,349_8809a67686d34844c915d7700e2ea72ad1c02ae232ae0d3cc0e458d4_circblurext.jpg,-3.619048,-0.2857144,circularblurringext,VIWI30081993,2022-06-15_19h33.51,ratings,2022.1.1,MacIntel,58.82352941
0.936329588,1.066,-0.823970037,2.234,0,258,258,233,1,407_578d31d32e806706dde2563213f130b90e621abfed0e47ecabd85d27_circblurext.jpg,3.5873,-0.444444,circularblurringext,VIWI30081993,2022-06-15_19h33.51,ratings,2022.1.1,MacIntel,58.82352941
0.848938826,1.076,0.611735331,2.231,0,259,259,190,1,369_c99797771115d7627d4abe3415f814497288f91a7be1a04c17c776b9_circblurint.jpg,3.619824,-0.174216,circularblurringint,VIWI30081993,2022-06-15_19h33.51,ratings,2022.1.1,MacIntel,58.82352941
-0.436953808,1.616,-0.998751561,2.273,0,260,260,280,1,440_9bf7e8609729bf888835168834da6c3ff30b75d0d4f36e2ee6918bcc_circblurint.jpg,-2.284164,2.710028,circularblurringint,VIWI30081993,2022-06-15_19h33.51,ratings,2022.1.1,MacIntel,58.82352941
-0.611735331,2.4,-0.074906367,3.304,0,261,261,236,1,410_9633c4ff6e8888fcfca59a60ca86e9606d3e0736500a254101bdf295_edges.jpg,-0.3677892,2.981028,edges,VIWI30081993,2022-06-15_19h33.51,ratings,2022.1.1,MacIntel,58.82352941
0.199750312,1.242,-0.873907615,3.172,0,262,262,222,1,403_57ac47f43882fc031a6067b1a388c0b2cbe8708dcbd2ff1019932eff_orig.jpg,-3.333332,-1.396824,original,VIWI30081993,2022-06-15_19h33.51,ratings,2022.1.1,MacIntel,58.82352941
1.02372035,0.976,0.474406991,1.896,0,263,263,448,1,709_69c01dcde028a2a1a913f1a2a5026ae1748484f75c89217a040c6791_circblurint.jpg,1.432444,-0.01935732,circularblurringint,VIWI30081993,2022-06-15_19h33.51,ratings,2022.1.1,MacIntel,58.82352941
-0.873907615,1.345,0.274656679,2.648,0,264,264,419,1,692_7d7eaf20e6de8956f0fca7500ace97a8599aa8b605a7d690cdb28724_circblurext.jpg,-2.063492,-1.26984,circularblurringext,VIWI30081993,2022-06-15_19h33.51,ratings,2022.1.1,MacIntel,58.82352941
1.922596754,4.558,-0.024968789,1.902,0,265,265,464,1,736_bb85db1bcda8eb34299aa5791ac65a0a7c343266eb2d6e6e328ec0e1_edges.jpg,3.650792,-0.03174604,edges,VIWI30081993,2022-06-15_19h33.51,ratings,2022.1.1,MacIntel,58.82352941
-0.511860175,1.631,-1.685393258,2.782,0,266,266,107,1,284_cdcbd54fc995081ac95c8b2c37a19cebb341f61a8eb268cee1623492_circblurext.jpg,-1.015872,2.095236,circularblurringext,VIWI30081993,2022-06-15_19h33.51,ratings,2022.1.1,MacIntel,58.82352941
1.535580524,1.946,-1.248439451,2.732,0,267,267,463,1,736_bb85db1bcda8eb34299aa5791ac65a0a7c343266eb2d6e6e328ec0e1_bw.jpg,3.650792,-0.03174604,blackwhite,VIWI30081993,2022-06-15_19h33.51,ratings,2022.1.1,MacIntel,58.82352941
1.585518102,1.082,-1.148564295,1.811,0,268,268,184,1,369_98db62a1bdabfd1bc551180da6658005b461585cd21614633cf76470_circblurint.jpg,2.190476,-0.03174604,circularblurringint,VIWI30081993,2022-06-15_19h33.51,ratings,2022.1.1,MacIntel,58.82352941
1.473158552,1.066,0.911360799,1.65,0,269,269,119,1,332_4d584229bdae2e1782f77f0e953e528f13c3dfa79b4b94736c0310fa_circblurext.jpg,3.157348,0.483092,circularblurringext,VIWI30081993,2022-06-15_19h33.51,ratings,2022.1.1,MacIntel,58.82352941
0.312109863,2.338,-0.536828964,3.532,0,270,270,289,1,442_7449d79dae5d652af9b2429872cabdef938646ba024db2f431b3b28d_bw.jpg,1.619048,0.126984,blackwhite,VIWI30081993,2022-06-15_19h33.51,ratings,2022.1.1,MacIntel,58.82352941
0.674157303,1.043,-1.111111111,1.695,0,271,271,61,1,156_08e8cf8f04630e9213e610580de73f51572d1d589878648700bae4dc_bw.jpg,2.222224,0.0,blackwhite,VIWI30081993,2022-06-15_19h33.51,ratings,2022.1.1,MacIntel,58.82352941
1.63545568,1.51,-1.27340824,2.159,0,272,272,394,1,663_aaf52107fe3a86392530d88b34e86f9d2b6820714cad98d1e3c2cb67_circblurint.jpg,2.58766,0.0918696,circularblurringint,VIWI30081993,2022-06-15_19h33.51,ratings,2022.1.1,MacIntel,58.82352941
0.112359551,1.735,-0.112359551,2.314,0,273,273,515,1,858_2f6539ee36aba48c38dc716d4f7c3ae93367d6ddf23ab41745d4172c_circblurext.jpg,0.0623832,0.176752,circularblurringext,VIWI30081993,2022-06-15_19h33.51,ratings,2022.1.1,MacIntel,58.82352941
-0.324594257,1.199,-0.037453184,2.396,0,274,274,486,1,818_877aae033c31e3bbca4486321a5307f87cf53c576c546462d3daf194_orig.jpg,-1.277584,0.619436,original,VIWI30081993,2022-06-15_19h33.51,ratings,2022.1.1,MacIntel,58.82352941
-0.212234707,1.292,-1.1360799,2.337,0,275,275,371,1,616_05a637f5281666f53d4e2ef69351485fc21d629b37ee2006b2076eb6_circblurext.jpg,-2.380952,-0.832364,circularblurringext,VIWI30081993,2022-06-15_19h33.51,ratings,2022.1.1,MacIntel,58.82352941
1.498127341,1.009,-1.435705368,1.6,0,276,276,83,1,242_85283f6935a89812ab229dcad9ba184529c9242ac3106d768ecf3ab3_circblurext.jpg,2.14918,-0.2949852,circularblurringext,VIWI30081993,2022-06-15_19h33.51,ratings,2022.1.1,MacIntel,58.82352941
1.335830212,1.148,-1.260923845,1.779,0,277,277,183,1,369_98db62a1bdabfd1bc551180da6658005b461585cd21614633cf76470_blur.jpg,2.190476,-0.03174604,blurring,VIWI30081993,2022-06-15_19h33.51,ratings,2022.1.1,MacIntel,58.82352941
-0.224719101,1.528,-1.02372035,2.199,0,278,278,435,1,694_f80f33613b268beffd6c044537cf3b44a84683d6e889bc37b8e9c34b_blur.jpg,-0.3785616,3.34728,blurring,VIWI30081993,2022-06-15_19h33.51,ratings,2022.1.1,MacIntel,58.82352941
-0.88639201,1.067,-1.098626717,1.727,0,279,279,365,1,508_a7a9519cdc7aad6844030f4e6cd96cffd1b9c49b71e20ea52789bda2_circblurext.jpg,-3.000388,-1.29694,circularblurringext,VIWI30081993,2022-06-15_19h33.51,ratings,2022.1.1,MacIntel,58.82352941
0.012484395,2.37,-0.449438202,2.889,0,280,280,555,1,1014_a5c212ca979d482cf94c2db7697aba75620391a64b030ab7ad2bbecf_blur.jpg,-3.174604,-1.374372,blurring,VIWI30081993,2022-06-15_19h33.51,ratings,2022.1.1,MacIntel,58.82352941
0.811485643,1.243,0.187265918,1.944,0,281,281,221,1,396_208259ea431d47bb7f3946213eb099834eb119756ce304ad473d4d9f_circblurext.jpg,2.857144,-0.3809524,circularblurringext,VIWI30081993,2022-06-15_19h33.51,ratings,2022.1.1,MacIntel,58.82352941
-1.735330836,1.294,0.611735331,2.096,0,282,282,333,1,482_a1cd28915c5044c018195ab0fff10dcc95e385246b045a7cd4463ff7_blur.jpg,-3.361852,-1.555612,blurring,VIWI30081993,2022-06-15_19h33.51,ratings,2022.1.1,MacIntel,58.82352941
-1.223470662,1.378,1.061173533,2.603,0,283,283,582,1,1225_59c67a821456f2cce3e5acf66d7f00076bd02caffc984c1eb0df794e_orig.jpg,-0.444444,3.809524,original,VIWI30081993,2022-06-15_19h33.51,ratings,2022.1.1,MacIntel,58.82352941
-0.24968789,2.916,-1.02372035,4.208,0,284,284,18,1,48_2cc936b2483ab2944c9158e163342b874ef6c1492fd8fca08c0e096e_orig.jpg,-1.264224,-0.779604,original,VIWI30081993,2022-06-15_19h33.51,ratings,2022.1.1,MacIntel,58.82352941
1.310861423,1.727,-0.649188514,2.98,0,285,285,109,1,293_3dfdfafc0c6a54b2da7453750ac281f7718c0b3337b0a74c4563d6bd_bw.jpg,-2.574524,2.632596,blackwhite,VIWI30081993,2022-06-15_19h33.51,ratings,2022.1.1,MacIntel,58.82352941
-0.873907615,1.075,-0.736579276,1.683,0,286,286,579,1,1061_665178b9cb0bc869cc2e2b68def4838db04e66f9531098fb75875a09_blur.jpg,0.3492064,-0.3174604,blurring,VIWI30081993,2022-06-15_19h33.51,ratings,2022.1.1,MacIntel,58.82352941
-1.985018727,0.934,1.323345818,1.994,0,287,287,407,1,686_6745b57686ad5d1bd6cf3e7ed5bc0243a154f8939e88e30321dfcfdb_circblurext.jpg,-1.523808,3.650792,circularblurringext,VIWI30081993,2022-06-15_19h33.51,ratings,2022.1.1,MacIntel,58.82352941
-0.911360799,1.11,1.260923845,1.767,0,288,288,585,1,1225_59c67a821456f2cce3e5acf66d7f00076bd02caffc984c1eb0df794e_blur.jpg,-0.444444,3.809524,blurring,VIWI30081993,2022-06-15_19h33.51,ratings,2022.1.1,MacIntel,58.82352941
-0.174781523,1.099,-0.224719101,1.732,0,289,289,151,1,355_00a76f54934d36566dd0e7b091b8aa6a56d8e6b32d349aa578a10b45_bw.jpg,2.910052,0.3439152,blackwhite,VIWI30081993,2022-06-15_19h33.51,ratings,2022.1.1,MacIntel,58.82352941
1.423220974,1.025,0.461922597,2.353,0,290,290,75,1,236_f645730e1eb06155418c9a571329cc7fa320654fcaaedf1048b5cc11_blur.jpg,2.253968,0.0,blurring,VIWI30081993,2022-06-15_19h33.51,ratings,2022.1.1,MacIntel,58.82352941
-1.061173533,1.102,-1.485642946,1.702,0,291,291,103,1,284_cdcbd54fc995081ac95c8b2c37a19cebb341f61a8eb268cee1623492_bw.jpg,-1.015872,2.095236,blackwhite,VIWI30081993,2022-06-15_19h33.51,ratings,2022.1.1,MacIntel,58.82352941
0.786516854,1.08,0.811485643,1.648,0,292,292,459,1,720_483c541c48959a597fcf44320941afaf8b7695105f90d65b5f6b30f2_blur.jpg,2.158732,-0.2539684,blurring,VIWI30081993,2022-06-15_19h33.51,ratings,2022.1.1,MacIntel,58.82352941
0.711610487,1.844,0.586766542,2.449,0,293,293,548,1,1010_06d15f44b979c086561137000ec070ba4cd479856f92840a7850b2bf_edges.jpg,0.189786,-0.189786,edges,VIWI30081993,2022-06-15_19h33.51,ratings,2022.1.1,MacIntel,58.82352941
-0.237203496,1.259,-0.187265918,1.828,0,294,294,418,1,692_7d7eaf20e6de8956f0fca7500ace97a8599aa8b605a7d690cdb28724_circblurint.jpg,-2.063492,-1.26984,circularblurringint,VIWI30081993,2022-06-15_19h33.51,ratings,2022.1.1,MacIntel,58.82352941
-0.24968789,1.092,-0.237203496,1.756,0,295,295,417,1,692_7d7eaf20e6de8956f0fca7500ace97a8599aa8b605a7d690cdb28724_blur.jpg,-2.063492,-1.26984,blurring,VIWI30081993,2022-06-15_19h33.51,ratings,2022.1.1,MacIntel,58.82352941
1.585518102,1.209,1.223470662,1.777,0,296,296,191,1,369_c99797771115d7627d4abe3415f814497288f91a7be1a04c17c776b9_circblurext.jpg,3.619824,-0.174216,circularblurringext,VIWI30081993,2022-06-15_19h33.51,ratings,2022.1.1,MacIntel,58.82352941
-1.310861423,1.529,0.561797753,2.385,0,297,297,358,1,500_3b520c7f352afa1a9f8c07e56cc0588cdc04d25ff6e7b602b5e280cb_circblurint.jpg,-0.8328,3.11766,circularblurringint,VIWI30081993,2022-06-15_19h33.51,ratings,2022.1.1,MacIntel,58.82352941
-0.012484395,1.866,0.099875156,2.537,0,298,298,309,1,455_34a7d8167619d110206c369e3f7dce8a3f99db763a9d8e2b956501d3_blur.jpg,-2.526412,-0.3827896,blurring,VIWI30081993,2022-06-15_19h33.51,ratings,2022.1.1,MacIntel,58.82352941
-1.011235955,1.434,1.373283396,2.53,0,299,299,591,1,1228_557412d34d6a70b7c5d222e030aa485b351a4574e8ba1a3112d1d13d_blur.jpg,2.137444,0.703464,blurring,VIWI30081993,2022-06-15_19h33.51,ratings,2022.1.1,MacIntel,58.82352941
1.235955056,1.232,-1.548064919,1.844,0,300,300,545,1,1005_b980c0747d20935bc63cc27a9e05ce2ff5bae98f859872ec48edd7f5_circblurext.jpg,3.428572,-0.476192,circularblurringext,VIWI30081993,2022-06-15_19h33.51,ratings,2022.1.1,MacIntel,58.82352941
-2.15980025,1.551,-0.961298377,2.162,0,301,301,141,1,353_44e285740cb41818482ac93fc5fbd72c18029444a1d7506c9fc053e7_blur.jpg,-3.232676,-0.87108,blurring,VIWI30081993,2022-06-15_19h33.51,ratings,2022.1.1,MacIntel,58.82352941
2.309612984,2.582,-1.91011236,1.72,0,302,302,15,1,39_2fafccaa4dc69045a05845f59c6b3cd2edcf7e0e0c108b24e553afe0_blur.jpg,2.022756,0.463548,blurring,VIWI30081993,2022-06-15_19h33.51,ratings,2022.1.1,MacIntel,58.82352941
-1.073657928,2.452,-0.998751561,3.656,0,303,303,204,1,381_5935a9f9796adce2f1539af6c75bcdc0c80d847a2ce9b77cf59b7672_orig.jpg,-1.327432,-0.442476,original,VIWI30081993,2022-06-15_19h33.51,ratings,2022.1.1,MacIntel,58.82352941
-0.24968789,4.244,0.099875156,3.54,0,304,304,490,1,818_877aae033c31e3bbca4486321a5307f87cf53c576c546462d3daf194_circblurint.jpg,-1.277584,0.619436,circularblurringint,VIWI30081993,2022-06-15_19h33.51,ratings,2022.1.1,MacIntel,58.82352941
-0.549313358,1.267,-1.198501873,2.112,0,305,305,557,1,1014_a5c212ca979d482cf94c2db7697aba75620391a64b030ab7ad2bbecf_circblurext.jpg,-3.174604,-1.374372,circularblurringext,VIWI30081993,2022-06-15_19h33.51,ratings,2022.1.1,MacIntel,58.82352941
1.123595506,1.026,-1.285892634,2.027,0,306,306,350,1,498_305b74cdc4784d9d25e72724302e5402def70177ea31ae7e25fab66b_edges.jpg,3.04762,-0.444444,edges,VIWI30081993,2022-06-15_19h33.51,ratings,2022.1.1,MacIntel,58.82352941
-0.374531835,1.141,-0.287141074,1.743,0,307,307,368,1,616_05a637f5281666f53d4e2ef69351485fc21d629b37ee2006b2076eb6_edges.jpg,-2.380952,-0.832364,edges,VIWI30081993,2022-06-15_19h33.51,ratings,2022.1.1,MacIntel,58.82352941
-0.212234707,1.206,-0.062421973,1.852,0,308,308,140,1,353_44e285740cb41818482ac93fc5fbd72c18029444a1d7506c9fc053e7_edges.jpg,-3.232676,-0.87108,edges,VIWI30081993,2022-06-15_19h33.51,ratings,2022.1.1,MacIntel,58.82352941
-0.149812734,1.317,-1.510611735,2.838,0,309,309,326,1,468_8b69b13120daebadd8a4a3166e1419f2404395cba231307a4efa9fde_edges.jpg,2.031744,0.2539684,edges,VIWI30081993,2022-06-15_19h33.51,ratings,2022.1.1,MacIntel,58.82352941
-0.049937578,1.192,-1.473158552,1.819,0,310,310,7,1,28_6318543b74eeb646a1735477ebc023fdc9ac3849bc0db1957c272a26_bw.jpg,2.811244,-0.74584,blackwhite,VIWI30081993,2022-06-15_19h33.51,ratings,2022.1.1,MacIntel,58.82352941
1.735330836,1.082,0.424469413,2.515,0,311,311,4,1,13_771f4fcf0a212d25d6a78565e7f34cc5ddd823e7afbdc77ef063326e_circblurint.jpg,2.190476,0.0,circularblurringint,VIWI30081993,2022-06-15_19h33.51,ratings,2022.1.1,MacIntel,58.82352941
0.287141074,1.185,0.062421973,1.769,0,312,312,291,1,442_7449d79dae5d652af9b2429872cabdef938646ba024db2f431b3b28d_blur.jpg,1.619048,0.126984,blurring,VIWI30081993,2022-06-15_19h33.51,ratings,2022.1.1,MacIntel,58.82352941
0.049937578,1.21,-0.224719101,1.834,0,313,313,314,1,459_46e25de472bb056cb470716d30937415f7344bfc4354d6eb710d8c9f_edges.jpg,0.03174604,0.0,edges,VIWI30081993,2022-06-15_19h33.51,ratings,2022.1.1,MacIntel,58.82352941
0.774032459,1.777,-0.911360799,2.352,0,314,314,523,1,877_cab3efed0c9ff4552037df6c1ea4ea9713f915c94592a14dbf2799da_bw.jpg,3.174604,0.3174604,blackwhite,VIWI30081993,2022-06-15_19h33.51,ratings,2022.1.1,MacIntel,58.82352941
-1.148564295,2.162,0.312109863,2.847,0,315,315,388,1,646_577760d718dab44c6f04d77408c5644a120065ce07a9503957d0850a_circblurint.jpg,-2.690668,2.61324,circularblurringint,VIWI30081993,2022-06-15_19h33.51,ratings,2022.1.1,MacIntel,58.82352941
0.923845194,1.061,-0.38701623,1.652,0,316,316,353,1,498_305b74cdc4784d9d25e72724302e5402def70177ea31ae7e25fab66b_circblurext.jpg,3.04762,-0.444444,circularblurringext,VIWI30081993,2022-06-15_19h33.51,ratings,2022.1.1,MacIntel,58.82352941
2.02247191,3.808,-1.173533084,4.571,0,317,317,469,1,741_2b218fb015e3da83db73cacdb52e61e0c2534c1fe255bb1c5c74d47f_bw.jpg,3.140096,0.448584,blackwhite,VIWI30081993,2022-06-15_19h33.51,ratings,2022.1.1,MacIntel,58.82352941
-1.435705368,1.268,-1.360799001,1.869,0,318,318,416,1,692_7d7eaf20e6de8956f0fca7500ace97a8599aa8b605a7d690cdb28724_edges.jpg,-2.063492,-1.26984,edges,VIWI30081993,2022-06-15_19h33.51,ratings,2022.1.1,MacIntel,58.82352941
1.685393258,1.125,-1.498127341,1.827,0,319,319,180,1,369_98db62a1bdabfd1bc551180da6658005b461585cd21614633cf76470_orig.jpg,2.190476,-0.03174604,original,VIWI30081993,2022-06-15_19h33.51,ratings,2022.1.1,MacIntel,58.82352941
1.91011236,1.192,-1.38576779,2.37,0,320,320,120,1,347_27f0e47c2722605b950ccf9fa900f78271e4c3c874064ab5dacac160_orig.jpg,1.838948,0.3097172,original,VIWI30081993,2022-06-15_19h33.51,ratings,2022.1.1,MacIntel,58.82352941
2.034956305,1.064,-1.935081149,2.264,0,321,321,285,1,440_dc6413e2b65369ee2587f4d85621742fe4ca87392d0a8ad2ea7d94e3_blur.jpg,-3.016216,1.69404,blurring,VIWI30081993,2022-06-15_19h33.51,ratings,2022.1.1,MacIntel,58.82352941
-0.49937578,1.484,-1.423220974,2.212,0,322,322,294,1,449_9c1e990a3480e5b51430fe76b0188e69ba2468fd6a866b88b2d0dd75_orig.jpg,0.095238,0.03174604,original,VIWI30081993,2022-06-15_19h33.51,ratings,2022.1.1,MacIntel,58.82352941
1.448189763,1.06,-0.599250936,2.313,0,323,323,198,1,380_34772591c787182a37724027eac6948ebc9d4064f6a601d23b923b8e_orig.jpg,2.222224,-0.063492,original,VIWI30081993,2022-06-15_19h33.51,ratings,2022.1.1,MacIntel,58.82352941
1.248439451,1.249,0.399500624,2.32,0,324,324,566,1,1037_e2eb929a6de79a63ce6cfe5321fcb74a203b134e4094932d90b01d99_edges.jpg,2.651956,0.0,edges,VIWI30081993,2022-06-15_19h33.51,ratings,2022.1.1,MacIntel,58.82352941
0.986267166,1.861,-1.335830212,2.719,0,325,325,145,1,354_e46c3ec6fb00773f64f2bcd212385f253c389808fe724b7cf8611051_bw.jpg,2.018292,0.0,blackwhite,VIWI30081993,2022-06-15_19h33.51,ratings,2022.1.1,MacIntel,58.82352941
-0.811485643,1.31,0.574282147,2.433,0,326,326,196,1,379_eeaa6d9bf5a4ef205dc48bc505cf3a7f24ea86e99af9b371e03602a7_circblurint.jpg,-0.3926308,2.88936,circularblurringint,VIWI30081993,2022-06-15_19h33.51,ratings,2022.1.1,MacIntel,58.82352941
-1.335830212,1.194,0.549313358,2.146,0,327,327,475,1,748_e519892faa7c772a0afaf9eeff36cf0e411574027ab3d9aa4947a048_bw.jpg,-1.813112,3.307432,blackwhite,VIWI30081993,2022-06-15_19h33.51,ratings,2022.1.1,MacIntel,58.82352941
0.037453184,1.032,0.037453184,1.61,0,328,328,438,1,700_59cb565f134f1afd066d7b6d936c6511b7cb76de0e9cbb5ce15124ad_orig.jpg,0.0,0.0,original,VIWI30081993,2022-06-15_19h33.51,ratings,2022.1.1,MacIntel,58.82352941
-1.186017478,1.511,-1.210986267,2.397,0,329,329,598,1,1239_cee00457f4cfb76a407b12fd5ad714d440a4614c1e5467ee16caf618_circblurint.jpg,-0.03174604,0.190476,circularblurringint,VIWI30081993,2022-06-15_19h33.51,ratings,2022.1.1,MacIntel,58.82352941
1.198501873,1.065,0.24968789,3.918,0,330,330,40,1,82_43f4d5aec7c2e5bd495473f6708a0f2d47c9fe34e1fe9436646cb036_circblurint.jpg,2.022756,0.505688,circularblurringint,VIWI30081993,2022-06-15_19h33.51,ratings,2022.1.1,MacIntel,58.82352941
0.561797753,1.516,-0.087390762,2.283,0,331,331,303,1,453_54f106fd1d4b65fa4aa347407127fc30d49f791e81aee3a0bbe44489_blur.jpg,2.222224,0.0,blurring,VIWI30081993,2022-06-15_19h33.51,ratings,2022.1.1,MacIntel,58.82352941
-0.923845194,1.347,0.524344569,1.983,0,332,332,592,1,1228_557412d34d6a70b7c5d222e030aa485b351a4574e8ba1a3112d1d13d_circblurint.jpg,2.137444,0.703464,circularblurringint,VIWI30081993,2022-06-15_19h33.51,ratings,2022.1.1,MacIntel,58.82352941
-1.697877653,1.228,0.711610487,1.886,0,333,333,246,1,414_0187bdf7007109b487865b6a9d388997a6817acf052a6a7cdd5b39d9_orig.jpg,-2.786708,-1.133056,original,VIWI30081993,2022-06-15_19h33.51,ratings,2022.1.1,MacIntel,58.82352941
0.88639201,1.027,-0.948813983,2.183,0,334,334,472,1,741_2b218fb015e3da83db73cacdb52e61e0c2534c1fe255bb1c5c74d47f_circblurint.jpg,3.140096,0.448584,circularblurringint,VIWI30081993,2022-06-15_19h33.51,ratings,2022.1.1,MacIntel,58.82352941
-1.260923845,1.202,-1.335830212,1.878,0,335,335,323,1,460_e06b3af7ff2f2bfb5f9b6e3d5dc25b9aaa40b84823fac8fd934621bd_circblurext.jpg,-3.430992,-1.607468,circularblurringext,VIWI30081993,2022-06-15_19h33.51,ratings,2022.1.1,MacIntel,58.82352941
-1.498127341,1.499,0.948813983,2.218,0,336,336,533,1,915_dc9fd40a3b5d64a180833a7bac86e7556c24f681f473fe255e41f936_circblurext.jpg,-3.09294,-0.918696,circularblurringext,VIWI30081993,2022-06-15_19h33.51,ratings,2022.1.1,MacIntel,58.82352941
0.936329588,1.048,-0.087390762,1.645,0,337,337,461,1,720_483c541c48959a597fcf44320941afaf8b7695105f90d65b5f6b30f2_circblurext.jpg,2.158732,-0.2539684,circularblurringext,VIWI30081993,2022-06-15_19h33.51,ratings,2022.1.1,MacIntel,58.82352941
0.836454432,1.165,-0.986267166,2.198,0,338,338,265,1,431_ab5a1dbbe9292ac7f74e276cdabcd372e2c1f852ff34bf7cc6646ef8_bw.jpg,3.102584,0.354334,blackwhite,VIWI30081993,2022-06-15_19h33.51,ratings,2022.1.1,MacIntel,58.82352941
-1.298377029,1.21,0.936329588,1.846,0,339,339,241,1,411_adfd0d5782129756321ff671d0cfb712528504c66c863df11aabd1e7_bw.jpg,-3.392332,-1.369576,blackwhite,VIWI30081993,2022-06-15_19h33.51,ratings,2022.1.1,MacIntel,58.82352941
1.148564295,3.063,-1.086142322,4.031,0,340,340,429,1,694_7a14b8ab7c564dcb0f628c4de7f6cb54e4c5f6601f774bf167641c37_blur.jpg,1.819588,0.116144,blurring,VIWI30081993,2022-06-15_19h33.51,ratings,2022.1.1,MacIntel,58.82352941
-0.973782772,15.431,-1.298377029,17.037,0,341,341,510,1,858_2f6539ee36aba48c38dc716d4f7c3ae93367d6ddf23ab41745d4172c_orig.jpg,0.0623832,0.176752,original,VIWI30081993,2022-06-15_19h33.51,ratings,2022.1.1,MacIntel,58.82352941
-2.347066167,1.116,1.148564295,2.101,0,342,342,534,1,986_a77edb21e78bc3a6aa7406517824596b3496ad6c657b6befb84cf370_orig.jpg,-3.906316,-0.60496,original,VIWI30081993,2022-06-15_19h33.51,ratings,2022.1.1,MacIntel,58.82352941
-0.38701623,1.208,-1.348314607,2.447,0,343,343,211,1,394_8e3a0cb945144d53bd1ace04b6256237ed9dcbbd9cb83f8a4886b0e6_bw.jpg,-2.593884,2.651956,blackwhite,VIWI30081993,2022-06-15_19h33.51,ratings,2022.1.1,MacIntel,58.82352941
1.348314607,1.11,-1.922596754,1.695,0,344,344,229,1,407_578d31d32e806706dde2563213f130b90e621abfed0e47ecabd85d27_bw.jpg,3.5873,-0.444444,blackwhite,VIWI30081993,2022-06-15_19h33.51,ratings,2022.1.1,MacIntel,58.82352941
0.973782772,2.814,-1.111111111,4.002,0,345,345,257,1,416_5eb54976bb41ce2a6d129ef985f792e716f010fb9b69b15f50f5d2db_circblurext.jpg,-2.58766,2.602972,circularblurringext,VIWI30081993,2022-06-15_19h33.51,ratings,2022.1.1,MacIntel,58.82352941
-0.661672909,2.914,-1.02372035,3.733,0,346,346,86,1,243_beddb302dcb21071d88c8d2cab07002050d36b3001ef28f89389fa56_edges.jpg,-0.3450656,-0.2070392,edges,VIWI30081993,2022-06-15_19h33.51,ratings,2022.1.1,MacIntel,58.82352941
-0.287141074,1.109,-0.399500624,1.663,0,347,347,511,1,858_2f6539ee36aba48c38dc716d4f7c3ae93367d6ddf23ab41745d4172c_bw.jpg,0.0623832,0.176752,blackwhite,VIWI30081993,2022-06-15_19h33.51,ratings,2022.1.1,MacIntel,58.82352941
-2.122347066,1.142,1.435705368,2.037,0,348,348,133,1,349_8809a67686d34844c915d7700e2ea72ad1c02ae232ae0d3cc0e458d4_bw.jpg,-3.619048,-0.2857144,blackwhite,VIWI30081993,2022-06-15_19h33.51,ratings,2022.1.1,MacIntel,58.82352941
-1.647940075,1.079,0.923845194,1.951,0,349,349,425,1,692_e3e3bf88684fbbcdb9849a4147f9e2fcd39b0f083554a829aca4e9fa_circblurext.jpg,-0.44522,3.135888,circularblurringext,VIWI30081993,2022-06-15_19h33.51,ratings,2022.1.1,MacIntel,58.82352941
-0.024968789,2.563,-0.549313358,4.377,0,350,350,317,1,459_46e25de472bb056cb470716d30937415f7344bfc4354d6eb710d8c9f_circblurext.jpg,0.03174604,0.0,circularblurringext,VIWI30081993,2022-06-15_19h33.51,ratings,2022.1.1,MacIntel,58.82352941
-0.24968789,1.545,-0.274656679,2.588,0,351,351,273,1,434_ba36d91204d7e578001f6a545d7501e65d209554def5a3c8b7583825_blur.jpg,-3.523808,1.428572,blurring,VIWI30081993,2022-06-15_19h33.51,ratings,2022.1.1,MacIntel,58.82352941
0.711610487,1.016,-0.586766542,1.761,0,352,352,76,1,236_f645730e1eb06155418c9a571329cc7fa320654fcaaedf1048b5cc11_circblurint.jpg,2.253968,0.0,circularblurringint,VIWI30081993,2022-06-15_19h33.51,ratings,2022.1.1,MacIntel,58.82352941
-1.348314607,1.368,1.061173533,1.984,0,353,353,404,1,686_6745b57686ad5d1bd6cf3e7ed5bc0243a154f8939e88e30321dfcfdb_edges.jpg,-1.523808,3.650792,edges,VIWI30081993,2022-06-15_19h33.51,ratings,2022.1.1,MacIntel,58.82352941
-1.086142322,1.195,1.011235955,1.834,0,354,354,397,1,683_a004ad18331da968da5debdd15e1447dd7748750af0bc6c57b844200_bw.jpg,-2.91956,2.466524,blackwhite,VIWI30081993,2022-06-15_19h33.51,ratings,2022.1.1,MacIntel,58.82352941
-0.524344569,1.049,0.599250936,1.744,0,355,355,193,1,379_eeaa6d9bf5a4ef205dc48bc505cf3a7f24ea86e99af9b371e03602a7_bw.jpg,-0.3926308,2.88936,blackwhite,VIWI30081993,2022-06-15_19h33.51,ratings,2022.1.1,MacIntel,58.82352941
-0.187265918,1.034,-1.186017478,1.627,0,356,356,361,1,508_a7a9519cdc7aad6844030f4e6cd96cffd1b9c49b71e20ea52789bda2_bw.jpg,-3.000388,-1.29694,blackwhite,VIWI30081993,2022-06-15_19h33.51,ratings,2022.1.1,MacIntel,58.82352941
2.034956305,1.209,1.622971286,1.835,0,357,357,52,1,112_b6a4ce721c2e42943d7d8b168751d74cd2f372b1cd4fed5a4404faec_circblurint.jpg,2.107036,0.505688,circularblurringint,VIWI30081993,2022-06-15_19h33.51,ratings,2022.1.1,MacIntel,58.82352941
2.034956305,4.32,-1.348314607,3.315,0,358,358,379,1,640_0ddb4981a5f5842ed5b4f7ef941be53779189df5e718b1fc5475ad80_bw.jpg,2.571428,-1.873016,blackwhite,VIWI30081993,2022-06-15_19h33.51,ratings,2022.1.1,MacIntel,58.82352941
-1.111111111,1.216,0.761548065,2.088,0,359,359,240,1,411_adfd0d5782129756321ff671d0cfb712528504c66c863df11aabd1e7_orig.jpg,-3.392332,-1.369576,original,VIWI30081993,2022-06-15_19h33.51,ratings,2022.1.1,MacIntel,58.82352941
0.811485643,1.364,0.037453184,2.438,0,360,360,110,1,293_3dfdfafc0c6a54b2da7453750ac281f7718c0b3337b0a74c4563d6bd_edges.jpg,-2.574524,2.632596,edges,VIWI30081993,2022-06-15_19h33.51,ratings,2022.1.1,MacIntel,58.82352941
1.360799001,1.193,-1.573033708,2.034,0,361,361,507,1,855_66d893451dfd1e7615132071c6c8a82b02dc2b37781cd89400883b26_blur.jpg,2.69484,0.2143624,blurring,VIWI30081993,2022-06-15_19h33.51,ratings,2022.1.1,MacIntel,58.82352941
-1.872659176,3.857,-1.722846442,2.714,0,362,362,126,1,349_18d92ef5c21ca70a3dd237aad251594e1688bbe01d8cff37b89c46b8_orig.jpg,-2.74874,-1.258228,original,VIWI30081993,2022-06-15_19h33.51,ratings,2022.1.1,MacIntel,58.82352941
1.123595506,1.999,-1.223470662,3.318,0,363,363,33,1,60_ad52063167538de24f94d7dfd04808cb94cf8f426c40871d2f126505_blur.jpg,2.158732,0.0,blurring,VIWI30081993,2022-06-15_19h33.51,ratings,2022.1.1,MacIntel,58.82352941
-0.299625468,1.327,-0.262172285,1.935,0,364,364,176,1,368_6507b94d7d0199f14efd3706db30c9c44b96085f84e9cc7792e3e0ae_edges.jpg,1.959544,0.400336,edges,VIWI30081993,2022-06-15_19h33.51,ratings,2022.1.1,MacIntel,58.82352941
-1.410736579,1.895,1.760299625,3.452,0,365,365,334,1,482_a1cd28915c5044c018195ab0fff10dcc95e385246b045a7cd4463ff7_circblurint.jpg,-3.361852,-1.555612,circularblurringint,VIWI30081993,2022-06-15_19h33.51,ratings,2022.1.1,MacIntel,58.82352941
0.63670412,12.055,-1.423220974,12.678,0,366,366,148,1,354_e46c3ec6fb00773f64f2bcd212385f253c389808fe724b7cf8611051_circblurint.jpg,2.018292,0.0,circularblurringint,VIWI30081993,2022-06-15_19h33.51,ratings,2022.1.1,MacIntel,58.82352941
1.086142322,1.11,-1.473158552,1.661,0,367,367,1,1,13_771f4fcf0a212d25d6a78565e7f34cc5ddd823e7afbdc77ef063326e_bw.jpg,2.190476,0.0,blackwhite,VIWI30081993,2022-06-15_19h33.51,ratings,2022.1.1,MacIntel,58.82352941
1.223470662,1.143,-2.047440699,2.401,0,368,368,518,1,860_05c4e22518a30d3d2add458a8fc6488f87b9b02dd8e385ded939f025_edges.jpg,1.955092,0.3097172,edges,VIWI30081993,2022-06-15_19h33.51,ratings,2022.1.1,MacIntel,58.82352941
2.047440699,1.008,-1.810237203,1.767,0,369,369,17,1,39_2fafccaa4dc69045a05845f59c6b3cd2edcf7e0e0c108b24e553afe0_circblurext.jpg,2.022756,0.463548,circularblurringext,VIWI30081993,2022-06-15_19h33.51,ratings,2022.1.1,MacIntel,58.82352941
0.112359551,3.398,0.337078652,2.216,0,370,370,281,1,440_9bf7e8609729bf888835168834da6c3ff30b75d0d4f36e2ee6918bcc_circblurext.jpg,-2.284164,2.710028,circularblurringext,VIWI30081993,2022-06-15_19h33.51,ratings,2022.1.1,MacIntel,58.82352941
2.15980025,0.991,-1.198501873,1.609,0,371,371,444,1,709_69c01dcde028a2a1a913f1a2a5026ae1748484f75c89217a040c6791_orig.jpg,1.432444,-0.01935732,original,VIWI30081993,2022-06-15_19h33.51,ratings,2022.1.1,MacIntel,58.82352941
0.923845194,1.26,-1.360799001,3.032,0,372,372,380,1,640_0ddb4981a5f5842ed5b4f7ef941be53779189df5e718b1fc5475ad80_edges.jpg,2.571428,-1.873016,edges,VIWI30081993,2022-06-15_19h33.51,ratings,2022.1.1,MacIntel,58.82352941
0.062421973,1.426,-0.112359551,2.546,0,373,373,386,1,646_577760d718dab44c6f04d77408c5644a120065ce07a9503957d0850a_edges.jpg,-2.690668,2.61324,edges,VIWI30081993,2022-06-15_19h33.51,ratings,2022.1.1,MacIntel,58.82352941
-1.585518102,1.158,1.485642946,2.146,0,374,374,528,1,915_dc9fd40a3b5d64a180833a7bac86e7556c24f681f473fe255e41f936_orig.jpg,-3.09294,-0.918696,original,VIWI30081993,2022-06-15_19h33.51,ratings,2022.1.1,MacIntel,58.82352941
-1.360799001,1.459,1.660424469,2.562,0,375,375,570,1,1039_d64da8480fc6e94dcdc513237d600570ae0b9fe48795ac6a8b2d29a7_orig.jpg,-2.507936,-1.142856,original,VIWI30081993,2022-06-15_19h33.51,ratings,2022.1.1,MacIntel,58.82352941
1.685393258,1.029,-1.360799001,2.103,0,376,376,521,1,860_05c4e22518a30d3d2add458a8fc6488f87b9b02dd8e385ded939f025_circblurext.jpg,1.955092,0.3097172,circularblurringext,VIWI30081993,2022-06-15_19h33.51,ratings,2022.1.1,MacIntel,58.82352941
-2.15980025,1.065,1.473158552,1.946,0,377,377,139,1,353_44e285740cb41818482ac93fc5fbd72c18029444a1d7506c9fc053e7_bw.jpg,-3.232676,-0.87108,blackwhite,VIWI30081993,2022-06-15_19h33.51,ratings,2022.1.1,MacIntel,58.82352941
-0.411985019,1.177,0.024968789,1.869,0,378,378,274,1,434_ba36d91204d7e578001f6a545d7501e65d209554def5a3c8b7583825_circblurint.jpg,-3.523808,1.428572,circularblurringint,VIWI30081993,2022-06-15_19h33.51,ratings,2022.1.1,MacIntel,58.82352941
-1.535580524,1.292,0.848938826,9.649,0,379,379,331,1,482_a1cd28915c5044c018195ab0fff10dcc95e385246b045a7cd4463ff7_bw.jpg,-3.361852,-1.555612,blackwhite,VIWI30081993,2022-06-15_19h33.51,ratings,2022.1.1,MacIntel,58.82352941
1.660424469,1.293,-1.847690387,1.947,0,380,380,121,1,347_27f0e47c2722605b950ccf9fa900f78271e4c3c874064ab5dacac160_bw.jpg,1.838948,0.3097172,blackwhite,VIWI30081993,2022-06-15_19h33.51,ratings,2022.1.1,MacIntel,58.82352941
-1.186017478,1.378,0.399500624,2.464,0,381,381,307,1,455_34a7d8167619d110206c369e3f7dce8a3f99db763a9d8e2b956501d3_bw.jpg,-2.526412,-0.3827896,blackwhite,VIWI30081993,2022-06-15_19h33.51,ratings,2022.1.1,MacIntel,58.82352941
2.184769039,2.168,-1.785268414,3.088,0,382,382,28,1,59_8568373b727f29d67ba6ce4c360dd918c8b08b13495fca56bdda5e82_circblurint.jpg,2.064896,0.505688,circularblurringint,VIWI30081993,2022-06-15_19h33.51,ratings,2022.1.1,MacIntel,58.82352941
2.009987516,1.159,-1.885143571,1.851,0,383,383,199,1,380_34772591c787182a37724027eac6948ebc9d4064f6a601d23b923b8e_bw.jpg,2.222224,-0.063492,blackwhite,VIWI30081993,2022-06-15_19h33.51,ratings,2022.1.1,MacIntel,58.82352941
1.373283396,1.627,-1.985018727,3.771,0,384,384,378,1,640_0ddb4981a5f5842ed5b4f7ef941be53779189df5e718b1fc5475ad80_orig.jpg,2.571428,-1.873016,original,VIWI30081993,2022-06-15_19h33.51,ratings,2022.1.1,MacIntel,58.82352941
-0.574282147,1.149,-0.162297129,1.876,0,385,385,479,1,748_e519892faa7c772a0afaf9eeff36cf0e411574027ab3d9aa4947a048_circblurext.jpg,-1.813112,3.307432,circularblurringext,VIWI30081993,2022-06-15_19h33.51,ratings,2022.1.1,MacIntel,58.82352941
1.585518102,1.109,-1.148564295,1.987,0,386,386,186,1,369_c99797771115d7627d4abe3415f814497288f91a7be1a04c17c776b9_orig.jpg,3.619824,-0.174216,original,VIWI30081993,2022-06-15_19h33.51,ratings,2022.1.1,MacIntel,58.82352941
0.24968789,0.994,0.037453184,1.562,0,387,387,288,1,442_7449d79dae5d652af9b2429872cabdef938646ba024db2f431b3b28d_orig.jpg,1.619048,0.126984,original,VIWI30081993,2022-06-15_19h33.51,ratings,2022.1.1,MacIntel,58.82352941
1.048689139,1.159,-1.248439451,2.23,0,388,388,390,1,663_aaf52107fe3a86392530d88b34e86f9d2b6820714cad98d1e3c2cb67_orig.jpg,2.58766,0.0918696,original,VIWI30081993,2022-06-15_19h33.51,ratings,2022.1.1,MacIntel,58.82352941
1.298377029,1.065,-1.423220974,1.766,0,389,389,337,1,492_a1a4d288d3bc486c83c3b6a835c42891989f5ba781633932298a7676_bw.jpg,3.406892,-0.44522,blackwhite,VIWI30081993,2022-06-15_19h33.51,ratings,2022.1.1,MacIntel,58.82352941
-1.38576779,1.284,1.485642946,1.995,0,390,390,586,1,1225_59c67a821456f2cce3e5acf66d7f00076bd02caffc984c1eb0df794e_circblurint.jpg,-0.444444,3.809524,circularblurringint,VIWI30081993,2022-06-15_19h33.51,ratings,2022.1.1,MacIntel,58.82352941
1.235955056,1.216,-0.611735331,1.812,0,391,391,430,1,694_7a14b8ab7c564dcb0f628c4de7f6cb54e4c5f6601f774bf167641c37_circblurint.jpg,1.819588,0.116144,circularblurringint,VIWI30081993,2022-06-15_19h33.51,ratings,2022.1.1,MacIntel,58.82352941
1.473158552,1.594,-1.585518102,2.854,0,392,392,540,1,1005_b980c0747d20935bc63cc27a9e05ce2ff5bae98f859872ec48edd7f5_orig.jpg,3.428572,-0.476192,original,VIWI30081993,2022-06-15_19h33.51,ratings,2022.1.1,MacIntel,58.82352941
-1.77278402,1.176,-1.435705368,1.695,0,393,393,319,1,460_e06b3af7ff2f2bfb5f9b6e3d5dc25b9aaa40b84823fac8fd934621bd_bw.jpg,-3.430992,-1.607468,blackwhite,VIWI30081993,2022-06-15_19h33.51,ratings,2022.1.1,MacIntel,58.82352941
0.524344569,1.114,-1.573033708,2.649,0,394,394,217,1,396_208259ea431d47bb7f3946213eb099834eb119756ce304ad473d4d9f_bw.jpg,2.857144,-0.3809524,blackwhite,VIWI30081993,2022-06-15_19h33.51,ratings,2022.1.1,MacIntel,58.82352941
1.435705368,0.899,-2.009987516,2.035,0,395,395,383,1,640_0ddb4981a5f5842ed5b4f7ef941be53779189df5e718b1fc5475ad80_circblurext.jpg,2.571428,-1.873016,circularblurringext,VIWI30081993,2022-06-15_19h33.51,ratings,2022.1.1,MacIntel,58.82352941
-1.248439451,2.428,1.198501873,3.219,0,396,396,573,1,1039_d64da8480fc6e94dcdc513237d600570ae0b9fe48795ac6a8b2d29a7_blur.jpg,-2.507936,-1.142856,blurring,VIWI30081993,2022-06-15_19h33.51,ratings,2022.1.1,MacIntel,58.82352941
0.961298377,1.291,-1.348314607,2.294,0,397,397,171,1,365_45a719cabbc9aa308c4fcb30d529489c6966ac4073874af84f665c61_blur.jpg,2.507936,-1.968252,blurring,VIWI30081993,2022-06-15_19h33.51,ratings,2022.1.1,MacIntel,58.82352941
0.062421973,1.181,0.024968789,1.801,0,398,398,296,1,449_9c1e990a3480e5b51430fe76b0188e69ba2468fd6a866b88b2d0dd75_edges.jpg,0.095238,0.03174604,edges,VIWI30081993,2022-06-15_19h33.51,ratings,2022.1.1,MacIntel,58.82352941
-1.535580524,1.393,0.449438202,2.8,0,399,399,262,1,416_8a1f874e0057d67a4e6955865ba88b2d8ce2c8b4469589307687a723_circblurint.jpg,-1.753336,3.088264,circularblurringint,VIWI30081993,2022-06-15_19h33.51,ratings,2022.1.1,MacIntel,58.82352941
-0.199750312,1.346,-0.13732834,1.954,0,400,400,553,1,1014_a5c212ca979d482cf94c2db7697aba75620391a64b030ab7ad2bbecf_bw.jpg,-3.174604,-1.374372,blackwhite,VIWI30081993,2022-06-15_19h33.51,ratings,2022.1.1,MacIntel,58.82352941
1.485642946,1.065,-1.086142322,1.652,0,401,401,485,1,759_95e1c46ed9a337414d5c8eada8fa8b9632e18751f5ce6ed587806e91_circblurext.jpg,2.126984,0.0,circularblurringext,VIWI30081993,2022-06-15_19h33.51,ratings,2022.1.1,MacIntel,58.82352941
0.149812734,1.295,-0.287141074,1.845,0,402,402,284,1,440_dc6413e2b65369ee2587f4d85621742fe4ca87392d0a8ad2ea7d94e3_edges.jpg,-3.016216,1.69404,edges,VIWI30081993,2022-06-15_19h33.51,ratings,2022.1.1,MacIntel,58.82352941
0.836454432,1.177,0.024968789,1.743,0,403,403,219,1,396_208259ea431d47bb7f3946213eb099834eb119756ce304ad473d4d9f_blur.jpg,2.857144,-0.3809524,blurring,VIWI30081993,2022-06-15_19h33.51,ratings,2022.1.1,MacIntel,58.82352941
-1.198501873,1.061,1.061173533,1.61,0,404,404,400,1,683_a004ad18331da968da5debdd15e1447dd7748750af0bc6c57b844200_circblurint.jpg,-2.91956,2.466524,circularblurringint,VIWI30081993,2022-06-15_19h33.51,ratings,2022.1.1,MacIntel,58.82352941
1.485642946,1.127,-1.161048689,1.719,0,405,405,78,1,242_85283f6935a89812ab229dcad9ba184529c9242ac3106d768ecf3ab3_orig.jpg,2.14918,-0.2949852,original,VIWI30081993,2022-06-15_19h33.51,ratings,2022.1.1,MacIntel,58.82352941
-1.360799001,1.068,-1.548064919,1.61,0,406,406,318,1,460_e06b3af7ff2f2bfb5f9b6e3d5dc25b9aaa40b84823fac8fd934621bd_orig.jpg,-3.430992,-1.607468,original,VIWI30081993,2022-06-15_19h33.51,ratings,2022.1.1,MacIntel,58.82352941
1.498127341,1.127,-1.498127341,2.136,0,407,407,341,1,492_a1a4d288d3bc486c83c3b6a835c42891989f5ba781633932298a7676_circblurext.jpg,3.406892,-0.44522,circularblurringext,VIWI30081993,2022-06-15_19h33.51,ratings,2022.1.1,MacIntel,58.82352941
1.161048689,1.315,-1.710362047,1.918,0,408,408,77,1,236_f645730e1eb06155418c9a571329cc7fa320654fcaaedf1048b5cc11_circblurext.jpg,2.253968,0.0,circularblurringext,VIWI30081993,2022-06-15_19h33.51,ratings,2022.1.1,MacIntel,58.82352941
-0.711610487,1.794,-1.710362047,2.479,0,409,409,530,1,915_dc9fd40a3b5d64a180833a7bac86e7556c24f681f473fe255e41f936_edges.jpg,-3.09294,-0.918696,edges,VIWI30081993,2022-06-15_19h33.51,ratings,2022.1.1,MacIntel,58.82352941
-0.049937578,2.364,-1.1360799,3.4,0,410,410,324,1,468_8b69b13120daebadd8a4a3166e1419f2404395cba231307a4efa9fde_orig.jpg,2.031744,0.2539684,original,VIWI30081993,2022-06-15_19h33.51,ratings,2022.1.1,MacIntel,58.82352941
-1.1360799,1.414,-1.061173533,2.028,0,411,411,205,1,381_5935a9f9796adce2f1539af6c75bcdc0c80d847a2ce9b77cf59b7672_bw.jpg,-1.327432,-0.442476,blackwhite,VIWI30081993,2022-06-15_19h33.51,ratings,2022.1.1,MacIntel,58.82352941
-0.224719101,1.727,-1.373283396,2.584,0,412,412,313,1,459_46e25de472bb056cb470716d30937415f7344bfc4354d6eb710d8c9f_bw.jpg,0.03174604,0.0,blackwhite,VIWI30081993,2022-06-15_19h33.51,ratings,2022.1.1,MacIntel,58.82352941
-0.337078652,1.561,-0.012484395,2.113,0,413,413,374,1,620_9674719009d75dcfeaed7f15932c43e1fd1af5e25d47b8aadd61efe2_edges.jpg,-0.561364,1.142084,edges,VIWI30081993,2022-06-15_19h33.51,ratings,2022.1.1,MacIntel,58.82352941
-0.362047441,1.194,-0.174781523,1.782,0,414,414,210,1,394_8e3a0cb945144d53bd1ace04b6256237ed9dcbbd9cb83f8a4886b0e6_orig.jpg,-2.593884,2.651956,original,VIWI30081993,2022-06-15_19h33.51,ratings,2022.1.1,MacIntel,58.82352941
1.722846442,1.091,-1.460674157,1.683,0,415,415,382,1,640_0ddb4981a5f5842ed5b4f7ef941be53779189df5e718b1fc5475ad80_circblurint.jpg,2.571428,-1.873016,circularblurringint,VIWI30081993,2022-06-15_19h33.51,ratings,2022.1.1,MacIntel,58.82352941
1.63545568,1.099,-1.310861423,1.694,0,416,416,201,1,380_34772591c787182a37724027eac6948ebc9d4064f6a601d23b923b8e_blur.jpg,2.222224,-0.063492,blurring,VIWI30081993,2022-06-15_19h33.51,ratings,2022.1.1,MacIntel,58.82352941
-0.374531835,1.102,-0.112359551,1.678,0,417,417,346,1,494_5c6c3b85a2734a43c24bfe337d42ffcc82b7347227804d01c784cef4_circblurint.jpg,0.03871468,0.0,circularblurringint,VIWI30081993,2022-06-15_19h33.51,ratings,2022.1.1,MacIntel,58.82352941
1.473158552,1.076,-1.460674157,2.244,0,418,418,551,1,1010_06d15f44b979c086561137000ec070ba4cd479856f92840a7850b2bf_circblurext.jpg,0.189786,-0.189786,circularblurringext,VIWI30081993,2022-06-15_19h33.51,ratings,2022.1.1,MacIntel,58.82352941
1.423220974,1.116,-1.560549313,2.265,0,419,419,413,1,687_e3b018945792a574962235c88c553b7c318c75eec2596478e8a7b877_circblurext.jpg,3.63918,-0.42586,circularblurringext,VIWI30081993,2022-06-15_19h33.51,ratings,2022.1.1,MacIntel,58.82352941
-0.973782772,1.432,1.061173533,2.58,0,420,420,590,1,1228_557412d34d6a70b7c5d222e030aa485b351a4574e8ba1a3112d1d13d_edges.jpg,2.137444,0.703464,edges,VIWI30081993,2022-06-15_19h33.51,ratings,2022.1.1,MacIntel,58.82352941
0.649188514,2.653,-1.186017478,4.14,0,421,421,226,1,403_57ac47f43882fc031a6067b1a388c0b2cbe8708dcbd2ff1019932eff_circblurint.jpg,-3.333332,-1.396824,circularblurringint,VIWI30081993,2022-06-15_19h33.51,ratings,2022.1.1,MacIntel,58.82352941
-1.235955056,2.303,0.898876404,3.007,0,422,422,357,1,500_3b520c7f352afa1a9f8c07e56cc0588cdc04d25ff6e7b602b5e280cb_blur.jpg,-0.8328,3.11766,blurring,VIWI30081993,2022-06-15_19h33.51,ratings,2022.1.1,MacIntel,58.82352941
0.911360799,1.347,-0.898876404,1.977,0,423,423,9,1,28_6318543b74eeb646a1735477ebc023fdc9ac3849bc0db1957c272a26_blur.jpg,2.811244,-0.74584,blurring,VIWI30081993,2022-06-15_19h33.51,ratings,2022.1.1,MacIntel,58.82352941
-0.711610487,1.134,-0.948813983,2.195,0,424,424,385,1,646_577760d718dab44c6f04d77408c5644a120065ce07a9503957d0850a_bw.jpg,-2.690668,2.61324,blackwhite,VIWI30081993,2022-06-15_19h33.51,ratings,2022.1.1,MacIntel,58.82352941
1.77278402,1.093,-1.510611735,1.759,0,425,425,25,1,59_8568373b727f29d67ba6ce4c360dd918c8b08b13495fca56bdda5e82_bw.jpg,2.064896,0.505688,blackwhite,VIWI30081993,2022-06-15_19h33.51,ratings,2022.1.1,MacIntel,58.82352941
-1.335830212,1.913,0.774032459,2.598,0,426,426,332,1,482_a1cd28915c5044c018195ab0fff10dcc95e385246b045a7cd4463ff7_edges.jpg,-3.361852,-1.555612,edges,VIWI30081993,2022-06-15_19h33.51,ratings,2022.1.1,MacIntel,58.82352941
2.359550562,3.616,-1.548064919,2.647,0,427,427,73,1,236_f645730e1eb06155418c9a571329cc7fa320654fcaaedf1048b5cc11_bw.jpg,2.253968,0.0,blackwhite,VIWI30081993,2022-06-15_19h33.51,ratings,2022.1.1,MacIntel,58.82352941
1.235955056,1.476,-2.109862672,2.212,0,428,428,352,1,498_305b74cdc4784d9d25e72724302e5402def70177ea31ae7e25fab66b_circblurint.jpg,3.04762,-0.444444,circularblurringint,VIWI30081993,2022-06-15_19h33.51,ratings,2022.1.1,MacIntel,58.82352941
-1.111111111,1.226,-1.722846442,1.832,0,429,429,129,1,349_18d92ef5c21ca70a3dd237aad251594e1688bbe01d8cff37b89c46b8_blur.jpg,-2.74874,-1.258228,blurring,VIWI30081993,2022-06-15_19h33.51,ratings,2022.1.1,MacIntel,58.82352941
0.848938826,1.113,0.474406991,3.441,0,430,430,43,1,92_5d20d78a8e57e628c6930676473a4e0a485e715841efd6286c660020_bw.jpg,2.126984,0.0,blackwhite,VIWI30081993,2022-06-15_19h33.51,ratings,2022.1.1,MacIntel,58.82352941
-1.210986267,1.133,1.036204744,1.75,0,431,431,244,1,411_adfd0d5782129756321ff671d0cfb712528504c66c863df11aabd1e7_circblurint.jpg,-3.392332,-1.369576,circularblurringint,VIWI30081993,2022-06-15_19h33.51,ratings,2022.1.1,MacIntel,58.82352941
-1.760299625,1.043,1.810237203,1.677,0,432,432,493,1,824_b1d91cc824ce0d3d383d3147da88d3d6dbaf6be918bab79e3ec8f501_bw.jpg,-3.645176,-1.432784,blackwhite,VIWI30081993,2022-06-15_19h33.51,ratings,2022.1.1,MacIntel,58.82352941
-0.973782772,1.228,-0.474406991,1.767,0,433,433,423,1,692_e3e3bf88684fbbcdb9849a4147f9e2fcd39b0f083554a829aca4e9fa_blur.jpg,-0.44522,3.135888,blurring,VIWI30081993,2022-06-15_19h33.51,ratings,2022.1.1,MacIntel,58.82352941
1.77278402,7.392,-1.111111111,8.161,0,434,434,30,1,60_ad52063167538de24f94d7dfd04808cb94cf8f426c40871d2f126505_orig.jpg,2.158732,0.0,original,VIWI30081993,2022-06-15_19h33.51,ratings,2022.1.1,MacIntel,58.82352941
-0.162297129,1.494,-0.099875156,2.747,0,435,435,509,1,855_66d893451dfd1e7615132071c6c8a82b02dc2b37781cd89400883b26_circblurext.jpg,2.69484,0.2143624,circularblurringext,VIWI30081993,2022-06-15_19h33.51,ratings,2022.1.1,MacIntel,58.82352941
-1.735330836,1.209,0.711610487,1.844,0,436,436,539,1,986_a77edb21e78bc3a6aa7406517824596b3496ad6c657b6befb84cf370_circblurext.jpg,-3.906316,-0.60496,circularblurringext,VIWI30081993,2022-06-15_19h33.51,ratings,2022.1.1,MacIntel,58.82352941
1.38576779,1.082,-1.335830212,1.634,0,437,437,32,1,60_ad52063167538de24f94d7dfd04808cb94cf8f426c40871d2f126505_edges.jpg,2.158732,0.0,edges,VIWI30081993,2022-06-15_19h33.51,ratings,2022.1.1,MacIntel,58.82352941
1.348314607,1.078,-0.998751561,1.677,0,438,438,431,1,694_7a14b8ab7c564dcb0f628c4de7f6cb54e4c5f6601f774bf167641c37_circblurext.jpg,1.819588,0.116144,circularblurringext,VIWI30081993,2022-06-15_19h33.51,ratings,2022.1.1,MacIntel,58.82352941
-0.986267166,1.176,-0.237203496,1.778,0,439,439,514,1,858_2f6539ee36aba48c38dc716d4f7c3ae93367d6ddf23ab41745d4172c_circblurint.jpg,0.0623832,0.176752,circularblurringint,VIWI30081993,2022-06-15_19h33.51,ratings,2022.1.1,MacIntel,58.82352941
1.585518102,1.281,-0.998751561,2.38,0,440,440,471,1,741_2b218fb015e3da83db73cacdb52e61e0c2534c1fe255bb1c5c74d47f_blur.jpg,3.140096,0.448584,blurring,VIWI30081993,2022-06-15_19h33.51,ratings,2022.1.1,MacIntel,58.82352941
